"Time (s)","Linear Acceleration x (m/s^2)","Linear Acceleration y (m/s^2)","Linear Acceleration z (m/s^2)","Absolute acceleration (m/s^2)"
5.116443400E-2,0.000000000E0,0.000000000E0,0.000000000E0,0.000000000E0
5.612245400E-2,-1.822316647E-2,-6.657052040E-2,1.393947601E-1,1.555461897E-1
6.114834000E-2,-8.611518145E-2,-6.994462013E-2,2.599763870E-1,2.826584444E-1
6.626485000E-2,-5.719995499E-2,-8.229017258E-2,3.977470398E-1,4.101782722E-1
7.138136100E-2,-5.352389812E-2,-6.453943253E-2,3.663434982E-1,3.758160517E-1
7.640724600E-2,-3.366917372E-2,-7.769322395E-2,1.442890167E-1,1.672996433E-1
8.129287100E-2,-5.937314034E-2,-7.589364052E-2,-4.573249817E-2,1.066605637E-1
8.631875700E-2,-1.158059239E-1,-9.370255470E-2,-1.957750320E-1,2.460061868E-1
9.131849600E-2,-8.649289608E-2,-1.667561531E-1,-3.660621643E-1,4.114488350E-1
9.631818400E-2,-3.912687302E-2,-1.441161633E-1,-5.022039413E-1,5.239362360E-1
1.015457360E-1,-7.777273655E-2,-1.031422615E-1,-6.090755463E-1,6.226234381E-1
1.063884440E-1,-8.885788918E-2,-8.731842041E-2,-5.939292908E-1,6.068543758E-1
1.113933920E-1,-4.473638535E-2,-2.464628220E-2,-5.175065994E-1,5.200210225E-1
1.164512570E-1,-5.443811417E-2,4.627752304E-2,-4.045953751E-1,4.108558566E-1
1.214445900E-1,-1.629998684E-1,1.759624481E-2,-2.601661682E-1,3.075142598E-1
1.264729230E-1,-2.744841576E-1,-2.223253250E-3,3.697109222E-2,2.769717626E-1
1.315025590E-1,-4.216334820E-1,-7.736587524E-2,5.029754639E-1,6.608665440E-1
1.365526630E-1,-3.364659548E-1,-2.295858860E-1,1.168437958E0,1.237403038E0
1.415709440E-1,-1.040930748E-1,-4.067859650E-1,1.768332481E0,1.817501019E0
1.474367250E-1,6.452736855E-1,-5.369966030E-1,2.438877106E0,2.579314835E0
1.524064650E-1,6.826981306E-1,-6.233491898E-1,2.307760239E0,2.486040681E0
1.568268290E-1,-2.160120010E-2,-3.845691681E-1,1.542989731E0,1.590338758E0
1.616546940E-1,-4.274674654E-1,-1.097178459E-1,6.204137802E-1,7.613669932E-1
1.667119860E-1,-4.548258781E-1,9.854316711E-2,-3.066825867E-1,5.573432911E-1
1.717022980E-1,-3.188914061E-1,2.260789871E-1,-1.119095802E0,1.185402401E0
1.767622460E-1,3.665065765E-2,2.219507694E-1,-1.648679733E0,1.663956213E0
1.817881840E-1,2.877223492E-2,2.777407169E-1,-1.981817245E0,2.001391351E0
1.868129230E-1,2.708911896E-2,1.980009079E-1,-2.089305878E0,2.098841878E0
1.918108920E-1,6.873178482E-2,1.216492653E-1,-2.006876945E0,2.011734992E0
1.968342770E-1,-3.215467930E-2,5.678558350E-2,-1.462425232E0,1.463880489E0
2.018611520E-1,-9.965252876E-2,1.564311981E-2,-4.644889832E-1,4.753160519E-1
2.069206320E-1,-1.899770498E-1,-5.599808693E-2,4.099111557E-1,4.552518213E-1
2.119438610E-1,1.175847054E-1,-3.321862221E-2,1.166157722E0,1.172541459E0
2.170088090E-1,8.382029533E-1,3.812289238E-2,1.688242912E0,1.885259048E0
2.220177670E-1,6.061581373E-1,1.288473606E-1,1.443595886E0,1.570986446E0
2.270549540E-1,3.333926201E-2,2.714359760E-1,6.855840683E-1,7.381155128E-1
2.320921420E-1,-2.122015953E-1,4.710421562E-1,-2.991828918E-1,5.970097426E-1
2.371147460E-1,-1.995818615E-1,6.025683880E-1,-1.222378731E0,1.377363911E0
2.421479230E-1,-1.151809692E-1,6.505780220E-1,-1.895542145E0,2.007385972E0
2.471811000E-1,5.649971962E-2,6.554830074E-1,-2.390724659E0,2.479599683E0
2.522142770E-1,3.774819374E-1,5.669734478E-1,-2.716706753E0,2.800794010E0
2.571785480E-1,6.686013937E-1,5.041675568E-1,-2.699841022E0,2.826721475E0
2.622082880E-1,1.261857033E0,3.856678009E-1,-2.168778896E0,2.538626543E0
2.671965170E-1,9.353595972E-1,3.514902592E-1,-1.601587296E0,1.887730077E0
2.722220900E-1,3.411672115E-1,5.666589737E-1,-1.049052238E0,1.240164528E0
2.772475590E-1,-8.350563049E-2,7.668929100E-1,-3.417778015E-1,8.437475875E-1
2.822731320E-1,-4.072260857E-1,8.431508541E-1,3.112812042E-1,9.867281468E-1
2.872997460E-1,-4.389789104E-1,9.233248234E-1,8.457794189E-1,1.326866248E0
2.923254230E-1,-5.627481937E-1,1.090982914E0,1.301533699E0,1.789111293E0
2.973511000E-1,-7.357268333E-1,1.226799011E0,1.192154884E0,1.862139376E0
3.023788610E-1,-8.577344418E-1,1.087115526E0,9.280481339E-1,1.666973869E0
3.074046420E-1,-4.544827938E-1,1.095923662E0,5.073184967E-1,1.290339235E0
3.124342250E-1,-4.969668388E-1,9.510211945E-1,-1.095981598E-1,1.078623710E0
3.174604230E-1,-5.462801456E-1,9.574179649E-1,-6.274843216E-1,1.268387847E0
3.224866210E-1,-9.385383129E-1,1.076288700E0,-4.603872299E-1,1.500402590E0
3.275086000E-1,-1.245233059E0,1.174964428E0,4.684743881E-1,1.774997192E0
3.325344860E-1,-1.518776417E0,1.130317688E0,5.694408417E-1,1.977008536E0
3.375603710E-1,-1.702466011E0,8.881459236E-1,6.270189285E-1,2.019986742E0
3.425862570E-1,-1.810383797E0,5.226650238E-1,1.346251965E0,2.315828701E0
3.476177150E-1,-1.917668343E0,5.780935287E-2,1.830126286E0,2.651444138E0
3.526438610E-1,-1.395448208E0,-6.631011963E-1,2.567776680E0,2.996740892E0
3.576700070E-1,-1.596355438E-1,-1.544782877E0,3.085239410E0,3.454061358E0
3.627234440E-1,7.548871040E-1,-2.106875420E0,2.785668850E0,3.573335909E0
3.677514650E-1,1.360868931E0,-2.265481472E0,1.850664139E0,3.226349067E0
3.727794860E-1,1.508547783E0,-2.031428337E0,5.591535568E-1,2.591345250E0
3.778056320E-1,1.327498913E0,-1.653538465E0,3.634262085E-1,2.151399877E0
3.828334960E-1,1.243376732E0,-1.335267782E0,2.667412758E-1,1.843929678E0
3.878613610E-1,1.423335075E0,-1.102044582E0,1.417660713E-1,1.805680652E0
3.928892250E-1,1.695176125E0,-8.455719948E-1,2.188205719E-3,1.894365033E0
3.979372460E-1,9.385590553E-1,-5.122117996E-1,-5.993604660E-1,1.225759763E0
4.029661000E-1,5.523025990E-1,-2.760858536E-1,-7.952890396E-1,1.006849649E0
4.080092770E-1,6.590306759E-1,-3.591070175E-1,-4.625110626E-1,8.815870716E-1
4.130395900E-1,1.050065756E0,-6.864824295E-1,3.455314636E-1,1.301264082E0
4.180609440E-1,1.269945621E0,-9.111809731E-1,1.359876633E0,2.071781143E0
4.230903710E-1,1.237198591E0,-1.153973579E0,2.315329552E0,2.867588937E0
4.281197980E-1,1.133779287E0,-1.452670574E0,2.754259586E0,3.313857743E0
4.331492250E-1,1.072021246E0,-1.460404873E0,2.875013828E0,3.398193117E0
4.381786520E-1,1.205458403E0,-1.452301025E0,2.550302505E0,3.172751345E0
4.431709960E-1,1.155844927E0,-1.291427135E0,2.322994232E0,2.898286346E0
4.481989130E-1,1.061866522E0,-9.818286896E-1,1.573359489E0,2.137055958E0
4.532268290E-1,7.480816841E-1,-4.975810051E-1,6.094169617E-1,1.085634421E0
4.582234960E-1,2.617845535E-1,-4.635477066E-2,-3.980345726E-1,4.786558662E-1
4.632493290E-1,2.250595093E-1,1.878943443E-1,-9.440526962E-1,9.885299998E-1
4.682751630E-1,-2.670755386E-1,6.531929970E-1,-1.306741238E0,1.485113833E0
4.732717250E-1,-1.708720684E0,1.289871693E0,-1.406181812E0,2.561414189E0
4.782955790E-1,-1.495818138E0,8.252873421E-1,-1.091742992E0,2.027430359E0
4.833194340E-1,-1.414422035E0,9.232311249E-1,-1.031751633E0,1.979256637E0
4.883541730E-1,-1.852708817E0,1.004064560E0,-1.687159538E-1,2.114034217E0
4.933787570E-1,-2.570573330E0,1.003918171E0,7.882676125E-1,2.870028705E0
4.984033400E-1,-2.681381702E0,1.733353138E0,3.731282234E0,4.910884650E0
5.034279230E-1,-3.032855034E0,2.047188759E0,6.033307076E0,7.056201934E0
5.084525070E-1,-2.208165646E0,1.478518963E0,5.567662716E0,6.169350206E0
5.134804750E-1,-3.757529259E-1,1.873703003E-1,2.517599583E0,2.552372533E0
5.185051630E-1,3.255071640E-1,-1.702762127E0,-1.894359827E0,2.567869336E0
5.235622980E-1,1.534122467E0,-2.701117277E0,-5.194765568E0,6.052698208E0
5.285903190E-1,3.973498344E-1,-1.666317463E0,-7.308606148E0,7.506678666E0
5.336183400E-1,-7.170319557E-1,-5.373539925E-1,-7.756201744E0,7.807787755E0
5.386723500E-1,-8.353834152E-1,-1.801595688E-1,-8.210935593E0,8.255288379E0
5.437021420E-1,5.218377113E-1,7.075023651E-2,-7.323633194E0,7.342542023E0
5.487319340E-1,1.071932316E0,4.047489166E-1,-5.925668240E0,6.035429120E0
5.537078710E-1,9.797339439E-1,6.479015350E-1,-4.550122738E0,4.699284193E0
5.587340690E-1,1.308299065E0,5.811438560E-1,-3.078239679E0,3.394839340E0
5.637602670E-1,2.235742569E0,2.963404655E-1,-2.014204979E0,3.023802937E0
5.688058920E-1,3.225121975E0,6.134080887E-2,-2.003395796E0,3.797205441E0
5.738332880E-1,3.731948376E0,-1.519417763E-1,-2.488288641E0,4.487995693E0
5.788606840E-1,4.279988289E0,2.585830688E-1,-3.310979128E0,5.417356158E0
5.838880790E-1,4.798781395E0,6.460766792E-1,-4.552459240E0,6.646096831E0
5.888651630E-1,5.470743656E0,3.513989449E-1,-5.177380562E0,7.540410258E0
5.938899020E-1,4.421746254E0,-5.624103546E-1,-5.237321854E0,6.877331280E0
5.989484440E-1,4.392261505E0,-6.638097763E-1,-5.191792488E0,6.832811558E0
6.039766210E-1,5.242446423E0,-4.046778679E-1,-4.300694466E0,6.792862545E0
6.090049540E-1,2.937877893E0,-2.317935944E0,-1.326949000E0,3.970484505E0
6.140331320E-1,3.138266087E0,-2.544920921E0,-6.776603460E-1,4.096896395E0
6.190613090E-1,3.535107613E0,-2.386011124E0,-1.243524551E-1,4.266790181E0
6.240894860E-1,4.114491463E0,-2.334563732E0,-6.265100241E-1,4.771974709E0
6.290588610E-1,3.994307280E0,-2.432318687E0,-1.105973244E0,4.805605233E0
6.340840690E-1,4.555143356E0,-1.954462528E0,-7.258309126E-1,5.009599314E0
6.391092770E-1,1.733561993E0,-2.533177376E0,-1.092922688E-1,3.071509336E0
6.441344860E-1,7.339854240E-1,-2.323467255E0,-1.223036051E0,2.726362387E0
6.492285480E-1,5.441565514E-1,-7.941145897E-1,-2.649788857E0,2.819238429E0
6.542571940E-1,6.669950485E-2,1.075940132E-1,-2.547757387E0,2.550900429E0
6.592773500E-1,-6.614327431E-1,9.578132629E-1,-2.462140560E0,2.723423518E0
6.643051110E-1,-1.149976730E0,1.505982876E0,-3.241885662E0,3.755030432E0
6.693117250E-1,-1.576793194E0,2.069284916E0,-3.558142662E0,4.407788112E0
6.743373500E-1,-1.951478004E0,2.483743191E0,-3.324516296E0,4.585810206E0
6.793629750E-1,-2.032973289E0,2.861205101E0,-3.121294022E0,4.697015158E0
6.843594340E-1,-1.876645088E0,2.898739338E0,-2.682018757E0,4.372380490E0
6.893831320E-1,-1.408764839E0,3.132529736E0,-2.754774094E0,4.402969591E0
6.944102670E-1,-1.619253159E0,3.410792351E0,-2.107261658E0,4.323891412E0
6.994342770E-1,-2.237076759E0,3.752313137E0,-1.694824219E0,4.685807875E0
7.044582880E-1,-2.544796467E0,3.888803959E0,-9.332089424E-1,4.740217740E0
7.094822980E-1,-2.858424187E-1,5.583597660E0,-7.394052744E-1,5.639591198E0
7.145292250E-1,2.454116821E0,5.059803963E0,1.687456846E0,5.871270401E0
7.195543820E-1,-3.600807190E-1,4.253727436E0,4.958602428E0,6.543056875E0
7.245795380E-1,-2.347977638E0,2.493426800E0,3.207022667E0,4.692032671E0
7.296285480E-1,-3.297945499E0,-1.781268120E-1,1.449406147E-1,3.305931255E0
7.346553190E-1,-2.786168575E0,-3.829336643E0,-3.323355436E0,5.785433935E0
7.396763610E-1,-3.720980167E0,-2.297179222E0,-7.104950905E0,8.342844428E0
7.447025590E-1,-1.890499115E0,-1.510740757E0,-6.006677628E0,6.475839765E0
7.497287570E-1,-9.164481163E-1,5.786590576E-1,-2.762554646E0,2.967563247E0
7.547549540E-1,-1.034892559E0,3.936408520E0,-5.340549946E-1,4.105061434E0
7.597847460E-1,-2.392850876E0,6.409713745E0,1.170081615E0,6.941127905E0
7.648111000E-1,-3.640821934E0,7.075546265E0,2.318779469E0,8.288285560E0
7.698339650E-1,-3.213758469E0,6.002433300E0,2.498236179E0,7.252491505E0
7.748599540E-1,-2.404828072E0,4.600929260E0,2.656700611E0,5.831792713E0
7.798859440E-1,-2.971192837E0,3.996701241E0,3.254517555E0,5.949242994E0
7.849119340E-1,-3.198515892E0,3.992997646E0,3.499781132E0,6.198629049E0
7.899403710E-1,-1.894979000E0,4.359827518E0,3.590590000E0,5.957464054E0
7.949664650E-1,-1.360540390E0,4.832954407E0,4.665040493E0,6.853548078E0
8.000034960E-1,-2.398443222E0,5.083726883E0,6.755334854E0,8.788137340E0
8.050307360E-1,-3.215846062E0,5.682552814E0,7.831487656E0,1.019633617E1
8.100579750E-1,-3.272463322E0,6.159637451E0,8.240267754E0,1.079593268E1
8.150852150E-1,-2.486745358E0,5.974450111E0,8.401583672E0,1.060493115E1
8.201330270E-1,-1.994322300E0,5.960921764E0,8.002171516E0,1.017568959E1
8.251612570E-1,-1.224138737E0,5.990647793E0,7.343518257E0,9.555816920E0
8.301894860E-1,2.227301359E0,5.422431946E0,1.028775597E1,1.184067407E1
8.352177150E-1,2.189436197E0,4.291430473E0,1.061217690E1,1.165454009E1
8.402459440E-1,-1.761784554E-1,1.977941036E0,8.473625183E0,8.703195582E0
8.452741730E-1,-3.257789612E-1,-7.158708572E-2,6.193484306E0,6.202459552E0
8.502588610E-1,6.140317917E-1,-1.363715172E0,4.816170216E0,5.043039724E0
8.552855790E-1,1.770745277E0,-2.749198437E0,3.245945454E0,4.607579926E0
8.603122980E-1,2.674458981E0,-3.615591764E0,1.316698074E0,4.686035474E0
8.652952150E-1,3.178063154E0,-3.445461035E0,-2.450942993E-3,4.687354602E0
8.703190170E-1,3.554848433E0,-3.316373587E0,-1.030024529E0,4.969530327E0
8.753596940E-1,3.762183189E0,-3.363528013E0,-1.791312695E0,5.355011131E0
8.803851630E-1,3.337470770E0,-3.479305983E0,-2.606769800E0,5.480832971E0
8.854307360E-1,2.448076248E0,-3.091373444E0,-3.761125565E0,5.449379102E0
8.904582880E-1,1.902706861E0,-2.683750629E0,-4.151041031E0,5.296598199E0
8.954858400E-1,2.314119339E0,-1.624039650E0,-4.479366302E0,5.296921330E0
9.004992770E-1,3.083194971E0,-1.269134045E0,-3.819817781E0,5.070286021E0
9.055258920E-1,3.855725765E0,-1.635800838E0,-2.560757637E0,4.909169506E0
9.105525070E-1,3.352657557E0,-2.117025375E0,-1.253516674E0,4.158534980E0
9.155791210E-1,1.824931860E0,-2.457020760E0,5.344390869E-3,3.060613643E0
9.206491730E-1,1.104913235E0,-2.673954964E0,3.377566338E-1,2.912893398E0
9.256779230E-1,1.048690319E0,-2.942138195E0,3.882927895E-1,3.147491038E0
9.307066730E-1,1.479078770E0,-3.071108103E0,-5.246639252E-3,3.408725057E0
9.357354230E-1,1.759590626E0,-3.055806875E0,-7.520380020E-1,3.605506342E0
9.407221940E-1,1.670393467E0,-2.971867323E0,-1.454222441E0,3.706342217E0
9.457487570E-1,2.612578392E0,-3.037855864E0,-2.590857029E0,4.771443623E0
9.507889650E-1,3.917882681E0,-3.355258226E0,-3.182015181E0,6.060757632E0
9.558167250E-1,4.820342541E0,-3.553062677E0,-3.544499874E0,6.958694990E0
9.608444860E-1,4.995951653E0,-3.677461863E0,-3.477547169E0,7.111722223E0
9.658722460E-1,4.223445892E0,-3.922854900E0,-3.584593296E0,6.787900623E0
9.708752670E-1,3.112144470E0,-4.421685696E0,-4.069118977E0,6.767161653E0
9.759016210E-1,1.909805298E0,-4.953661919E0,-4.400633812E0,6.895774114E0
9.809279750E-1,1.379675865E0,-5.134042740E0,-4.996300697E0,7.295541173E0
9.859543290E-1,7.829794884E-1,-4.794386864E0,-5.119918823E0,7.057816308E0
9.910281320E-1,1.477627754E-1,-4.295342445E0,-5.271944523E0,6.801852660E0
9.960567770E-1,4.167451859E-1,-4.273405075E0,-5.284187317E0,6.808693200E0
1.001085423E0,1.399369717E0,-5.259499073E0,-4.765018940E0,7.233669304E0
1.006108496E0,1.271761417E0,-4.856662750E0,-5.451285839E0,7.410874946E0
1.011136725E0,2.098708153E0,-4.796023369E0,-6.407279015E0,8.274034109E0
1.016164954E0,2.027796745E0,-4.422998428E0,-5.680759907E0,7.479699717E0
1.021193184E0,1.325345039E-1,-2.829499960E0,3.114635229E0,4.210057960E0
1.026221413E0,-6.095658779E0,5.297403336E-1,2.224864769E1,2.307466153E1
1.031235736E0,-4.939363003E0,2.242313385E0,2.316674995E1,2.379335158E1
1.036263392E0,1.716761589E0,-2.323408127E-1,9.112895966E0,9.276105082E0
1.041291048E0,3.743806124E0,-2.543448210E0,-9.584016204E-1,4.626418350E0
1.046318704E0,2.593063831E0,-3.147838116E0,-4.491575718E0,6.066886950E0
1.051319954E0,1.094331264E0,-3.399192810E0,-2.198325634E0,4.193412485E0
1.056346257E0,4.626517296E-1,-2.571935892E0,2.028684139E0,3.308241254E0
1.061372559E0,-1.145821095E0,-2.344417810E0,3.693883657E0,4.522607359E0
1.066397507E0,-3.149517536E0,-2.725685358E0,6.361017823E-1,4.213483934E0
1.071423704E0,-4.832092762E0,-3.375071049E0,-3.334467173E0,6.771919696E0
1.076449902E0,-4.190994740E0,-4.411038876E0,-6.368086815E0,8.807623434E0
1.081442923E0,-3.077018261E0,-4.828802109E0,-6.404446125E0,8.590826581E0
1.086466725E0,-1.918826103E0,-4.410383224E0,-5.655130863E0,7.423872230E0
1.091502767E0,-5.858211517E-1,-3.743470192E0,-4.170336723E0,5.634577525E0
1.096527767E0,7.510709763E-1,-3.364600182E0,-2.808192492E0,4.446412831E0
1.101552767E0,2.293359280E0,-3.473083496E0,-1.760639429E0,4.519032746E0
1.106577767E0,2.295117378E0,-3.382639408E0,-1.758694768E0,4.450036003E0
1.111602767E0,3.489418030E-1,-2.058035135E0,-1.165178061E0,2.390587566E0
1.116603652E0,1.537934303E0,-2.524638891E0,-8.521349430E-1,3.076552846E0
1.121627663E0,4.551126480E0,-5.436544895E0,4.843101203E-1,7.106569420E0
1.126651465E0,2.336165905E0,-5.122362614E0,-1.476251721E0,5.820273965E0
1.131675475E0,-1.605043888E0,-4.616368771E0,-4.707453728E0,6.785804824E0
1.136732402E0,-2.418848038E0,-3.342270374E0,-5.965911865E0,7.253530276E0
1.141759798E0,-8.346295357E-1,-3.151936531E-1,-2.681233883E0,2.825768680E0
1.146787611E0,-6.487789154E-1,9.036288261E-1,-3.257020473E0,3.441749773E0
1.151815007E0,-1.058769226E-2,1.266143799E0,-5.019271374E0,5.176515946E0
1.156842559E0,-5.226154327E-1,2.160036564E0,-5.508199692E0,5.939625299E0
1.161869954E0,-6.437258720E-1,2.073393822E0,-4.619721413E0,5.104426595E0
1.166897350E0,-2.783207893E-1,1.881568909E0,-3.493652105E0,3.977859858E0
1.171924746E0,-1.505265236E-1,1.598360538E0,-2.806312084E0,3.233079362E0
1.176941257E0,1.335453987E-1,1.551316261E0,-1.964930534E0,2.507063725E0
1.181968132E0,-2.115273476E-1,2.099777222E0,-1.336889267E0,2.498215585E0
1.186987454E0,-7.541031837E-1,2.301764965E0,-1.611193180E0,2.909078381E0
1.192013548E0,-1.833474159E0,2.523590088E0,-1.158698916E0,3.327569324E0
1.197039642E0,-3.292942047E0,2.675334930E0,-5.363035202E-1,4.276506259E0
1.202043704E0,-2.807088852E0,2.643893719E0,5.274003744E-1,3.892052540E0
1.207068288E0,-3.345149040E0,3.702638149E0,1.274056077E0,5.150026238E0
1.212092871E0,-1.084044456E0,4.507147789E0,1.994000912E0,5.046342558E0
1.217119694E0,4.634244442E0,5.109901905E0,3.866297722E0,7.907943924E0
1.222144434E0,4.072730064E0,5.423064709E0,4.337563038E0,8.050541231E0
1.227168392E0,-5.452194214E-1,6.983068943E0,3.686545372E0,7.915246860E0
1.232193027E0,-1.316923141E0,6.678840637E0,3.051326036E0,7.460012694E0
1.237217663E0,-1.328307629E0,6.196982384E0,3.306008577E0,7.148194495E0
1.242242298E0,-2.057052612E0,4.826433659E0,3.790075779E0,6.472294935E0
1.247279173E0,-2.644297123E0,3.917061329E0,3.207388878E0,5.711656515E0
1.252304434E0,-4.952886105E0,5.396334171E0,1.938810825E0,7.576971075E0
1.257329694E0,9.892773628E-1,4.511494160E0,-1.530969381E0,4.865810981E0
1.262372767E0,3.327293396E-1,5.875235081E0,-3.896566868E0,7.057785022E0
1.267399225E0,-2.709705353E0,5.269268990E0,-6.069760323E0,8.482316261E0
1.272425684E0,-3.681726456E0,3.149581432E0,-7.449765205E0,8.886730248E0
1.277464538E0,-6.901896477E0,2.259861946E0,-9.719431877E0,1.213303371E1
1.282491829E0,-2.675521851E0,-3.983798027E-1,-6.876762390E0,7.389653890E0
1.287519121E0,1.180458069E-2,-1.231374741E0,-3.577107906E0,3.783136803E0
1.292512142E0,1.387697697E0,-1.166668415E0,1.310423851E0,2.236969101E0
1.297537142E0,1.186228275E0,-2.742266655E-1,5.769878387E0,5.896934321E0
1.302562142E0,-7.115688324E-1,1.195834637E0,8.537642479E0,8.650299982E0
1.307622975E0,-2.727298737E0,2.310604095E0,6.622363091E0,7.525472915E0
1.312650371E0,-4.100370407E0,3.395093441E0,2.366282940E0,5.825718145E0
1.317677767E0,-6.636739731E0,4.888188362E0,6.706494093E-2,8.242887687E0
1.322695996E0,-8.467786789E0,5.847312450E0,-1.029803276E0,1.034190363E1
1.327722767E0,-7.708665848E0,5.528618336E0,-2.474081516E-1,9.489486849E0
1.332751569E0,-5.665412903E0,4.331159115E0,1.528158188E0,7.293223573E0
1.337778548E0,-5.607098579E0,2.674387455E0,1.613859177E0,6.418445620E0
1.342805527E0,-5.607147217E0,1.296836376E0,6.352123618E-1,5.790110469E0
1.347832507E0,-5.751353264E0,6.073260307E-1,-7.396520376E-1,5.830436897E0
1.352855579E0,-5.585877419E0,5.462632179E-1,-1.587469220E0,5.832708510E0
1.357882350E0,-4.792209625E0,6.344695091E-1,-2.081791401E0,5.263238555E0
1.362903704E0,-4.077857018E0,8.015108109E-1,-2.585187197E0,4.894336551E0
1.367929902E0,-4.109604836E0,1.397132874E0,-2.535192728E0,5.026731974E0
1.372956100E0,-4.513288498E0,2.061745644E0,-2.843847752E0,5.719094176E0
1.377987038E0,-4.545138359E0,1.786929607E0,-2.101889372E0,5.316891861E0
1.383013548E0,-3.902220726E0,8.622517586E-1,-2.558769584E-1,4.004532146E0
1.388038184E0,-2.237970352E0,-6.217203140E-1,8.455149531E-1,2.471829885E0
1.393064538E0,-7.325706482E-1,-9.889597893E-1,-2.665374279E0,2.935799936E0
1.398090892E0,2.722039223E-1,-5.126023293E-1,-3.640956640E0,3.686925736E0
1.403117819E0,1.107811928E0,-5.164923668E-1,-4.028457642E0,4.209807906E0
1.408144173E0,2.639494419E0,-1.460666656E0,-3.688784122E0,4.765249854E0
1.413170527E0,3.922823191E0,-2.308978081E0,-3.619842291E0,5.815769921E0
1.418194434E0,3.606955767E0,-2.816035748E0,-3.853294134E0,5.982312506E0
1.423220632E0,3.495568514E0,-2.869601727E0,-3.993478775E0,6.033364404E0
1.428246829E0,3.477517843E0,-2.467371941E0,-3.333678722E0,5.412436463E0
1.433271517E0,3.609342337E0,-2.232155323E0,-1.898049831E0,4.648920590E0
1.438297611E0,4.533660889E0,-2.618006706E0,-5.464544296E-1,5.263710916E0
1.443323704E0,4.631944656E0,-3.841070414E0,2.611246109E-1,6.023032399E0
1.448338079E0,4.520640373E0,-3.736027479E0,4.953036308E-1,5.885526008E0
1.453363392E0,4.811619759E0,-4.021344185E0,5.027353764E-2,6.270998420E0
1.458386100E0,5.041472912E0,-4.347183228E0,4.851984978E-2,6.657086849E0
1.463411152E0,5.402732372E0,-4.827682972E0,4.568409920E-1,7.259803279E0
1.468436204E0,5.996852398E0,-5.518963337E0,1.255810022E0,8.246105372E0
1.473448809E0,6.376037121E0,-6.128233910E0,1.889241695E0,9.043137420E0
1.478473027E0,5.587753773E0,-6.020590782E0,1.631456017E0,8.374494273E0
1.483501152E0,2.814839125E0,-5.561638832E0,7.510365248E-1,6.278471284E0
1.488525736E0,-4.553036690E-1,-4.965376377E0,3.076922894E-1,4.995691998E0
1.493549902E0,-2.447054386E0,-5.110386848E0,2.651629448E-1,5.672251784E0
1.498574434E0,-3.751711369E0,-5.138674736E0,-4.493497610E-1,6.378340806E0
1.503601204E0,-3.526006699E0,-5.282433033E0,-2.026605129E0,6.666629608E0
1.508625996E0,-2.698935032E0,-5.819593430E0,-3.928110600E0,7.522098834E0
1.513653809E0,-1.425798416E0,-6.495514393E0,-5.106718063E0,8.384699024E0
1.518678861E0,1.497836113E-1,-7.121985435E0,-6.102542400E0,9.380092506E0
1.523703913E0,1.555889606E0,-7.935383797E0,-6.110090256E0,1.013530026E1
1.528731517E0,1.583464146E0,-8.235951424E0,-4.775892258E0,9.651290142E0
1.533756777E0,1.533161640E0,-7.069112301E0,-3.418931007E0,8.000751375E0
1.538783079E0,1.783089161E0,-5.713851452E0,-2.112051487E0,6.347303904E0
1.543808444E0,1.704192162E0,-4.805022240E0,-2.334754467E-1,5.103628164E0
1.548833809E0,1.690857410E0,-3.686823368E0,2.559109211E0,4.795905054E0
1.553865996E0,2.846537590E0,-2.521891594E0,5.396886826E0,6.602204243E0
1.558891777E0,4.659507751E0,5.903544426E-1,1.171479034E1,1.262124573E1
1.563915944E0,-6.787605762E0,6.754828930E0,7.165346146E0,1.195999545E1
1.568941569E0,-4.959898472E0,6.235538483E0,8.242752075E0,1.146409590E1
1.573969486E0,-6.229892731E0,7.424774170E0,7.939153671E0,1.252872683E1
1.578995319E0,-6.609242916E0,7.106780529E0,8.472644806E0,1.288309479E1
1.584021152E0,-6.275375366E0,4.618258953E0,6.383695602E0,1.007274646E1
1.589055371E0,-2.889556885E0,5.457978249E-1,3.199743748E0,4.345778907E0
1.594081777E0,-7.242522240E-1,-9.467849731E-1,2.261861563E-1,1.213302620E0
1.599108184E0,2.384710312E-1,-1.147870064E0,-1.125480890E0,1.625171176E0
1.604134590E0,6.534538269E-1,-1.183327675E0,-1.759283781E0,2.218636003E0
1.609160996E0,3.793102264E0,-4.075954914E0,-1.110177755E0,5.677457873E0
1.614209173E0,3.188119173E0,-5.481886387E0,-1.523389578E0,6.521955077E0
1.619236465E0,1.092000484E0,-4.595136642E0,-2.161794901E0,5.194333741E0
1.624263757E0,-3.203214169E0,-2.817020893E0,-2.270008087E0,4.832093174E0
1.629301413E0,-2.589377880E0,-1.912513256E0,-1.881003022E0,3.728371914E0
1.634329382E0,-1.720242977E0,-2.494392395E0,-1.343156099E0,3.314407583E0
1.639357350E0,-1.556239605E0,-1.806370258E0,-2.630491257E0,3.550259071E0
1.644399538E0,-3.645866394E0,-4.250206947E-1,-4.695367813E0,5.959820740E0
1.649428444E0,-5.551377773E0,1.283284664E0,-6.483814716E0,8.631597070E0
1.654457350E0,-1.554594040E0,1.964864254E0,-6.010709286E0,6.511995108E0
1.659486257E0,5.478034496E0,-2.014851093E0,-4.404093742E0,7.311944240E0
1.664436361E0,7.666480541E0,-1.020600319E0,-2.708220959E0,8.194571963E0
1.669461361E0,7.023552418E0,8.048300743E-1,-2.548351765E0,7.514794523E0
1.674518392E0,4.254795074E0,2.169320107E0,-2.154505014E0,5.239381901E0
1.679546673E0,-1.506524086E-1,4.283953190E0,-3.050040007E-1,4.297438600E0
1.684574954E0,-3.189037800E0,6.444777489E0,7.323209047E-1,7.227822139E0
1.689589382E0,-5.024713993E0,7.286678314E0,2.788001776E0,9.279891458E0
1.694616725E0,-6.864078045E0,8.047081947E0,5.608947754E0,1.197210884E1
1.699644069E0,-6.090638638E0,8.579785347E0,6.744480133E0,1.249786413E1
1.704641204E0,-3.527793884E0,6.546392441E0,6.763169765E0,1.005191768E1
1.709666517E0,-2.370419979E0,3.533205032E0,4.321459770E0,6.064440883E0
1.714691829E0,-1.374628544E0,1.030821800E0,1.690436959E0,2.410347346E0
1.719717142E0,1.313288450E0,-3.714829922E0,8.838531971E-1,4.038054528E0
1.724738704E0,1.809503078E0,-5.605725288E0,-4.874190092E-1,5.910671255E0
1.729763809E0,2.938449383E0,-5.055207253E0,-1.905803204E0,6.149934227E0
1.734788913E0,2.252602339E0,-4.929026604E0,-2.836538792E0,6.116818852E0
1.739862298E0,-7.667837143E-1,-5.546559334E0,-4.277739525E0,7.046370211E0
1.744890684E0,-2.875910282E0,-5.508675575E0,-6.884597301E0,9.274375804E0
1.749919069E0,-4.432970047E0,-6.341930389E0,-1.202767944E1,1.430162149E1
1.754905840E0,-4.919189453E0,-1.381130314E1,-1.492549610E1,2.092178179E1
1.759931465E0,-6.424732208E-1,-2.161505508E1,-1.075511169E1,2.415151767E1
1.764957038E0,1.408114052E1,-1.961878204E1,-6.396883488E0,2.498189836E1
1.769982663E0,2.273403549E1,-1.366679287E1,-2.905017138E0,2.668439097E1
1.775008288E0,2.086039162E1,-1.000482655E1,-4.561522007E0,2.358092398E1
1.780041413E0,1.389891338E1,-5.953130722E0,-4.755099773E0,1.585025339E1
1.785067507E0,5.220523834E0,-3.384857178E-1,-5.871872902E0,7.864307539E0
1.790093600E0,3.759570122E-1,7.268044472E0,1.656232595E0,7.463840870E0
1.795113809E0,-9.054958344E0,1.305423546E1,8.778604507E0,1.815128731E1
1.800139538E0,-1.865709877E1,1.579279137E1,1.382252598E1,2.808134288E1
1.805165267E0,-1.899204445E1,1.577920818E1,1.587292862E1,2.935355219E1
1.810211621E0,-1.589815426E1,1.458256912E1,1.580475330E1,2.674308991E1
1.815238704E0,-1.135623550E1,1.148831940E1,1.215859413E1,2.021823382E1
1.820265788E0,-9.853317261E0,1.105613422E1,6.119283199E0,1.602409411E1
1.825265527E0,3.277702570E0,5.130429268E0,3.854484558E0,7.205670671E0
1.830290788E0,-3.907361031E-1,1.302919388E0,-1.014696598E0,1.697021750E0
1.835316048E0,1.948681355E0,8.013544083E-1,-5.106230736E0,5.523868231E0
1.840341309E0,1.357194424E0,1.530806541E0,-5.803719521E0,6.153739160E0
1.845406100E0,6.547605991E-2,1.508941650E0,-3.632777452E0,3.934242499E0
1.850433340E0,4.231080532E0,1.940784454E-1,-1.460253835E0,4.480184167E0
1.855460579E0,1.890848541E1,-4.981212616E-1,-2.996840000E0,1.915097897E1
1.860480111E0,-3.168829679E0,6.181716919E-2,-1.908923626E0,3.699904365E0
1.865506829E0,-2.379807472E1,-4.259424210E-1,-7.479994297E-1,2.381363665E1
1.870501986E0,-1.098078251E1,-3.812564850E0,-5.778555870E0,1.298094539E1
1.875525475E0,2.055798054E0,-6.703840256E0,-1.185443783E1,1.377299808E1
1.880558965E0,1.567358875E1,-6.124968529E0,-1.200820732E1,2.067301785E1
1.885583444E0,2.064419508E0,-3.322928429E0,-7.093470573E0,8.100679356E0
1.890607923E0,-5.387752652E-1,-1.798370838E0,-3.123545647E0,3.644304305E0
1.895661673E0,2.350074768E0,-4.174575806E-1,-6.979780793E-1,2.486824410E0
1.900688132E0,1.776740551E0,1.554262161E0,1.569673538E0,2.834856763E0
1.905719486E0,-7.923041582E-1,2.208549500E0,4.118947983E0,4.740376489E0
1.910746465E0,1.417210340E0,8.178129196E-1,3.831297398E0,4.166070435E0
1.915773444E0,4.756274223E0,2.143564224E0,2.185170889E0,5.656145674E0
1.920800423E0,4.426532269E0,2.543560028E0,2.829898357E0,5.837140589E0
1.925792402E0,1.470920444E0,2.368160248E0,4.022382259E0,4.894011540E0
1.930817611E0,2.636018038E0,2.273243904E0,3.101085186E0,4.661862104E0
1.935842819E0,3.093273878E0,2.048202515E0,1.767323136E0,4.109368308E0
1.940868027E0,2.426756144E0,2.080144882E0,-2.331137657E-1,3.204760543E0
1.945916257E0,1.913097024E0,2.182713509E0,-2.361783981E0,3.741951638E0
1.950942611E0,1.688097119E0,2.361238480E0,-3.962319851E0,4.911730616E0
1.955968965E0,1.458041549E0,2.601775169E0,-4.861708164E0,5.703623889E0
1.961021152E0,1.307327390E0,2.656273842E0,-5.067732811E0,5.869140607E0
1.966049225E0,1.247722030E0,2.592421532E0,-4.247386932E0,5.130083373E0
1.971077298E0,1.464007974E0,2.319749832E0,-2.506134272E0,3.715544054E0
1.976103861E0,2.179310322E0,1.900517464E0,-1.805282116E0,3.408871313E0
1.981131829E0,2.389474869E0,1.019577980E0,-1.098391771E0,2.820566236E0
1.986159798E0,1.919715643E0,8.383827209E-1,-5.649471879E-1,2.169644916E0
1.991181829E0,1.969582677E0,5.478420258E-1,-5.992186666E-1,2.130363776E0
1.996209382E0,1.548307419E0,2.772569656E-1,-9.226883054E-1,1.823590140E0
2.001236934E0,1.741062880E0,-8.233432770E-1,-1.765037537E0,2.612384276E0
2.006241257E0,9.596983790E-1,2.050046921E-1,-2.625455856E0,2.802867524E0
2.011267194E0,1.212400675E0,2.097940445E-1,-3.897471428E0,4.087078721E0
2.016293132E0,-2.354397476E-1,1.472249985E0,-4.258848667E0,4.512288096E0
2.021329590E0,-7.734089494E-1,2.346509933E0,-4.796884060E0,5.395773064E0
2.026356257E0,4.059243202E-1,2.480361938E0,-4.503698349E0,5.157544834E0
2.031382923E0,5.168603659E-1,2.438911438E0,-3.571038723E0,4.355198182E0
2.036391725E0,-7.081249952E-1,3.382639885E0,-3.210676670E0,4.717217218E0
2.041417194E0,-1.725090265E0,3.761263847E0,-2.602516413E0,4.888367195E0
2.046445371E0,-1.886397600E0,3.714131355E0,-9.706966877E-1,4.277326231E0
2.051471100E0,1.631790102E-1,2.658293724E0,1.300477266E0,2.963847842E0
2.056496829E0,-6.631708145E-2,1.349123955E0,2.606446981E0,2.935659937E0
2.061522559E0,-1.325474501E0,3.918552399E-2,2.185009241E0,2.555911489E0
2.066536621E0,-2.550645828E0,-5.498619080E-1,1.585940123E0,3.053415846E0
2.071561725E0,-2.990993023E0,-1.073461533E0,7.012782097E-1,3.254251074E0
2.076586829E0,-2.817308664E0,-1.340188026E0,-5.662621260E-1,3.170801926E0
2.081630371E0,-3.970970154E0,-8.196172714E-1,-2.090465784E0,4.561844323E0
2.086656725E0,-5.801471710E0,1.815280914E-1,-2.236531258E0,6.220297301E0
2.091683079E0,-7.667131901E0,8.979110718E-1,-3.889815807E0,8.644178555E0
2.096709434E0,-9.500283241E0,1.664697647E0,-5.414968967E0,1.106112512E1
2.101739069E0,-1.078766060E1,2.281527519E0,-6.170544624E0,1.263545053E1
2.106765579E0,-1.079699707E1,2.409646034E0,-5.515023232E0,1.236110921E1
2.111792090E0,-9.610960960E0,2.135615349E0,-3.883821011E0,1.058373701E1
2.116811152E0,-8.324707985E0,2.108723640E0,-1.863682508E0,8.787536112E0
2.121837142E0,-6.133067608E0,1.514605522E0,-2.903712988E-1,6.323991118E0
2.126863132E0,-4.745891094E0,9.461116791E-1,8.206225634E-1,4.908363371E0
2.131858132E0,-3.946585655E0,6.280927658E-1,2.221870184E0,4.572389525E0
2.136882038E0,-3.791412830E0,2.261886597E-1,4.404666901E0,5.816103770E0
2.141905944E0,-3.397231102E0,-2.439546585E-1,2.597302914E0,4.283301934E0
2.146929850E0,-2.406914949E0,-7.038221359E-1,3.762992620E-1,2.535785146E0
2.151993184E0,-1.646721482E0,-9.748649597E-1,9.176414013E-1,2.122290996E0
2.157019069E0,-7.900612354E-1,-1.271228790E0,8.886570930E-1,1.740669648E0
2.162047767E0,4.069514871E-1,-1.673757553E0,-2.832452655E-1,1.745652239E0
2.167073913E0,1.420465589E0,-2.143336773E0,-1.781888247E0,3.128376693E0
2.172098236E0,1.870981932E0,-2.321042538E0,-3.161275864E0,4.345282147E0
2.177124225E0,1.712740302E0,-1.944632053E0,-3.092759132E0,4.034876977E0
2.182151986E0,1.562078238E0,-1.574567795E0,-2.747379303E0,3.530926960E0
2.187178132E0,1.541266203E0,-1.349761009E0,-2.914859295E0,3.562830476E0
2.192201309E0,1.543216467E0,-6.826610565E-1,-2.243515253E0,2.807294761E0
2.197227142E0,1.733865023E0,-1.421546936E-2,-1.126782060E0,2.067880027E0
2.202252975E0,1.133026123E0,7.556085587E-1,3.020294011E-1,1.394960304E0
2.207278809E0,3.660943508E-1,1.492463112E0,1.628508329E0,2.239087000E0
2.212307298E0,2.666298747E-1,1.789999008E0,2.597355843E0,3.165666646E0
2.217333288E0,6.359555125E-1,2.098087311E0,3.779421091E0,4.369260070E0
2.222357871E0,-2.571821213E-3,2.779848099E0,4.693548679E0,5.454994159E0
2.227383704E0,-2.672883272E-1,3.232318878E0,5.584982395E0,6.458432994E0
2.232409538E0,-5.954854488E-1,3.579959869E0,6.067298412E0,7.069853295E0
2.237435371E0,-1.293199897E0,4.348413467E0,6.557559967E0,7.973873486E0
2.242490892E0,-2.188731909E0,4.695625305E0,7.012828827E0,8.718899732E0
2.247518236E0,-2.305526972E0,4.578690529E0,6.557310104E0,8.323351331E0
2.252545579E0,-1.358382344E0,3.883722305E0,5.531023979E0,6.893527964E0
2.257572923E0,-1.096019030E0,3.710866928E0,5.094118118E0,6.397017311E0
2.262537090E0,-2.786002159E-1,3.117375374E0,4.458445072E0,5.447327764E0
2.267561257E0,4.178014994E-1,2.553754807E0,3.375265598E0,4.253074131E0
2.272585527E0,9.181518555E-1,2.005285263E0,2.233745575E0,3.139074881E0
2.277609694E0,2.253172398E-1,1.648522377E0,2.154521942E0,2.722197400E0
2.282633861E0,7.947015762E-2,1.219860077E0,1.697332263E0,2.091724390E0
2.287693652E0,1.535904408E-1,6.858778000E-1,1.270077229E0,1.451590351E0
2.292720267E0,2.553534508E-2,1.421709061E-1,1.093402863E0,1.102902734E0
2.297746882E0,-5.107021332E-2,-4.732084274E-1,1.234605670E0,1.323172529E0
2.302743548E0,1.955735683E-1,-1.045279503E0,1.331531525E0,1.704064101E0
2.307768184E0,-3.230876923E-1,-1.544902325E0,1.184164286E0,1.973158358E0
2.312792819E0,-9.800066948E-1,-2.235052586E0,1.432915568E0,2.830038906E0
2.317820632E0,-8.712198734E-1,-2.766217232E0,2.009211540E0,3.528159981E0
2.322845475E0,-2.839775085E-1,-3.156840324E0,2.420134783E0,3.987898748E0
2.327870319E0,2.320537567E-1,-3.363196373E0,2.439307213E0,4.161148696E0
2.332926829E0,2.909817696E-1,-3.528156281E0,2.161098480E0,4.147638337E0
2.337953809E0,6.931519508E-2,-3.441588402E0,1.369839430E0,3.704834057E0
2.342980788E0,-5.522470474E-1,-3.228473663E0,4.232840240E-1,3.302603270E0
2.348007767E0,-1.116184711E0,-2.894743919E0,-5.444506407E-1,3.149894787E0
2.352999277E0,-1.156856060E0,-2.503951073E0,-1.245076895E0,3.026268890E0
2.358024486E0,-1.000067711E0,-2.247593403E0,-1.812824488E0,3.055837717E0
2.363049694E0,-5.082986355E-1,-1.992154598E0,-2.286155224E0,3.074663096E0
2.368108861E0,-3.313832283E-1,-1.751951694E0,-2.205039024E0,2.835726835E0
2.373136361E0,-2.304968834E-1,-1.537048817E0,-2.098995209E0,2.611786508E0
2.378155736E0,-1.482868195E-1,-1.471881390E0,-1.811942577E0,2.339136531E0
2.383182402E0,-4.692769051E-2,-1.475257397E0,-1.168547153E0,1.882575110E0
2.388216152E0,8.307600021E-2,-1.537617207E0,-3.801137805E-1,1.586081581E0
2.393243496E0,2.795603275E-1,-1.639955044E0,4.623529017E-1,1.726666363E0
2.398270840E0,3.801741600E-1,-1.796512127E0,1.148523569E0,2.165893488E0
2.403298184E0,5.955095291E-1,-2.002426624E0,1.965279818E0,2.868216998E0
2.408289642E0,7.246553898E-1,-2.109544277E0,2.678152561E0,3.485369942E0
2.413315215E0,9.976983070E-1,-2.275530815E0,3.163600445E0,4.022662076E0
2.418340788E0,1.280702591E0,-2.471591949E0,3.474451065E0,4.452053020E0
2.423399798E0,1.521531105E0,-2.673600197E0,3.716333151E0,4.824347314E0
2.428427611E0,1.816076517E0,-2.809780121E0,3.870399237E0,5.115954309E0
2.433452663E0,2.135915756E0,-2.990014076E0,3.879686117E0,5.343620932E0
2.438480163E0,2.400110722E0,-3.099417686E0,3.839772940E0,5.487328831E0
2.443507663E0,2.733243942E0,-3.214525223E0,3.846114159E0,5.709324739E0
2.448535163E0,3.039969206E0,-3.263550758E0,3.754698515E0,5.830088958E0
2.453589329E0,3.435574532E0,-3.313330650E0,3.555757761E0,5.951869086E0
2.458618184E0,3.767083406E0,-3.311262131E0,3.273274660E0,5.989131931E0
2.463647038E0,4.054368496E0,-3.233329773E0,2.849598885E0,5.917139438E0
2.468675892E0,4.269310951E0,-3.136898041E0,2.446729183E0,5.835548733E0
2.473704746E0,4.407487392E0,-2.983720779E0,1.987681627E0,5.681497431E0
2.478700892E0,4.492859364E0,-2.730933189E0,1.525109649E0,5.474462603E0
2.483728444E0,4.458348751E0,-2.359678268E0,9.114046693E-1,5.125974404E0
2.488755996E0,4.341583252E0,-1.913361073E0,7.725834846E-2,4.745130618E0
2.493786100E0,4.237352848E0,-1.315882206E0,-6.401703954E-1,4.482914596E0
2.498813809E0,4.015795708E0,-7.157897949E-1,-1.482059240E0,4.339984999E0
2.503841517E0,3.833944559E0,-9.412765503E-2,-2.564895153E0,4.613748806E0
2.508869225E0,3.471469879E0,5.299501419E-1,-3.489502430E0,4.950613849E0
2.513868444E0,3.076710701E0,1.190108299E0,-4.205612183E0,5.345061303E0
2.518894694E0,2.606702566E0,1.690913200E0,-5.157653809E0,6.021252239E0
2.523918496E0,1.885841489E0,2.000146866E0,-6.122786522E0,6.711594475E0
2.528944486E0,1.194064140E0,2.052344322E0,-7.132009506E0,7.516878740E0
2.533988757E0,1.401185989E-2,2.441654205E0,-7.145545959E0,7.551205112E0
2.539016621E0,-1.878707409E0,3.072670937E0,-6.909359455E0,7.791668390E0
2.544044486E0,-3.944379330E0,3.796808243E0,-6.490192890E0,8.490964897E0
2.549060996E0,-5.874479771E0,4.475091934E0,-5.125825405E0,8.989440832E0
2.554088079E0,-7.854224682E0,4.873498917E0,-3.656576157E0,9.940341354E0
2.559115163E0,-9.376671791E0,4.505599022E0,-2.184997082E0,1.062998630E1
2.564142246E0,-1.051135921E1,3.779377937E0,-1.321704626E0,1.124807865E1
2.569125840E0,-1.168246460E1,3.101626396E0,-4.430339336E-1,1.209530258E1
2.574150736E0,-1.110716629E1,2.217854500E0,-6.293754578E-1,1.134390299E1
2.579169486E0,-8.595437050E0,1.173475266E0,-1.637275696E0,8.828321130E0
2.584193757E0,-5.863501549E0,2.070379257E-1,-2.733492136E0,6.472672892E0
2.589218027E0,-3.674711227E0,-5.902242661E-1,-3.173179150E0,4.890903107E0
2.594242298E0,-2.193801880E0,-1.117889881E0,-2.964016914E0,3.853289600E0
2.599266569E0,-1.542792320E0,-1.338182926E0,-2.381608009E0,3.137355319E0
2.604370423E0,-1.241836548E0,-1.442868710E0,-1.609172821E0,2.492682349E0
2.609397871E0,-8.482666016E-1,-1.515004635E0,-4.483428001E-1,1.793267001E0
2.614425319E0,-2.469587326E-1,-1.741025448E0,7.309295535E-1,1.904315162E0
2.619385944E0,2.178068161E-1,-1.948791504E0,1.826935649E0,2.680097386E0
2.624408965E0,7.484834194E-1,-2.104207039E0,2.553029060E0,3.392030671E0
2.629435319E0,1.406535149E0,-2.298514366E0,2.881122828E0,3.944918017E0
2.634458652E0,1.876287460E0,-2.412202835E0,3.017470837E0,4.294683621E0
2.639481986E0,2.124702692E0,-2.421620369E0,3.200898647E0,4.541404947E0
2.644557194E0,2.410005808E0,-2.441989899E0,3.363516092E0,4.804652242E0
2.649583913E0,2.659120321E0,-2.368941307E0,3.524069309E0,5.010176474E0
2.654610632E0,2.733372927E0,-2.140772820E0,3.600373268E0,5.001692063E0
2.659624694E0,2.856891155E0,-1.629281044E0,3.176166773E0,4.572135077E0
2.664650527E0,2.956552982E0,-9.964179993E-2,2.821461201E0,4.088004077E0
2.669675007E0,2.820302486E0,2.316445351E0,2.905520201E0,4.664983689E0
2.674700684E0,2.284485579E0,5.138799667E0,3.142264366E0,6.442046393E0
2.679723861E0,1.663463593E0,7.529430389E0,2.805368900E0,8.205457195E0
2.684749277E0,1.147170305E0,9.072754860E0,2.536417484E0,9.490220973E0
2.689774694E0,4.908742905E-1,1.021499252E1,2.294870615E0,1.048110018E1
2.694800111E0,-6.118154526E-2,1.030300617E1,2.400215626E0,1.057906964E1
2.699796569E0,-1.902532578E-2,9.068229675E0,3.136012554E0,9.595192867E0
2.704820527E0,7.392895222E-1,7.069660187E0,3.876104355E0,8.096346653E0
2.709844486E0,1.538287640E0,5.243433952E0,4.064946175E0,6.810559146E0
2.714868444E0,1.665467262E0,3.864156723E0,3.430291653E0,5.428847871E0
2.719898809E0,1.062550545E0,2.731289864E0,1.973671675E0,3.533318250E0
2.724923079E0,6.005213261E-1,1.494738579E0,-1.305646896E-1,1.616142450E0
2.729947350E0,8.122308254E-1,5.741214752E-2,-2.642576218E0,2.765180669E0
2.735009798E0,1.497076988E0,-7.938656807E-1,-5.446732521E0,5.704240299E0
2.740036673E0,2.518561840E0,-1.329219341E0,-7.763811111E0,8.269627608E0
2.745059590E0,3.807835817E0,-1.612319469E0,-7.151053429E0,8.260554026E0
2.750086048E0,4.685649872E0,-1.671996593E0,-4.509582996E0,6.714702237E0
2.755112507E0,5.186955452E0,-1.426427364E0,-1.882983923E0,5.699546503E0
2.760144329E0,5.164805412E0,-9.662957191E-1,1.116663814E-1,5.255607647E0
2.765171152E0,4.768327236E0,-6.025295258E-1,1.357391834E0,4.994246595E0
2.770197975E0,3.911330700E0,-1.202354431E-1,1.979871511E0,4.385527974E0
2.775224798E0,3.013484955E0,3.600158691E-1,2.404336929E0,3.871890891E0
2.780212611E0,2.527560234E0,7.038364410E-1,2.874250889E0,3.891691746E0
2.785237454E0,2.231349945E0,1.030460358E0,3.251350164E0,4.075788147E0
2.790263236E0,2.182036400E0,1.168102264E0,3.497572899E0,4.284712585E0
2.795288184E0,2.427150011E0,1.184219360E0,3.516802788E0,4.434110341E0
2.800313132E0,2.861757278E0,1.017306328E0,3.294126034E0,4.480606344E0
2.805338079E0,3.319351435E0,6.825475693E-1,2.924409628E0,4.476174349E0
2.810400111E0,3.618786335E0,4.625902176E-1,2.680238008E0,4.526950412E0
2.815426934E0,3.762635469E0,2.195215225E-1,2.752110481E0,4.666875558E0
2.820453757E0,3.665463448E0,1.017751694E-1,2.977472782E0,4.723486492E0
2.825446204E0,3.285954475E0,-2.900505066E-2,3.179410934E0,4.572416429E0
2.830470736E0,2.924274445E0,-1.732749939E-1,3.338620186E0,4.441597685E0
2.835495267E0,2.475577593E0,-2.449150085E-1,3.382496595E0,4.198779703E0
2.840524121E0,1.891694427E0,-3.159370422E-1,3.372679949E0,3.879857479E0
2.845548965E0,1.378099203E0,-3.099555969E-1,3.256045818E0,3.549234320E0
2.850598340E0,1.129485846E0,-3.707799911E-1,3.171009541E0,3.386519981E0
2.855625527E0,9.602119923E-1,-4.118947983E-1,3.183734655E0,3.350795540E0
2.860652715E0,1.047322273E0,-4.523553848E-1,3.221795082E0,3.417816977E0
2.865653600E0,9.904851913E-1,-4.487409592E-1,3.246593714E0,3.423857489E0
2.870678965E0,8.950273991E-1,-3.294219971E-1,3.043259621E0,3.189203978E0
2.875704329E0,5.805039406E-1,-1.804494858E-1,2.874580145E0,2.938155519E0
2.880735736E0,5.016804934E-1,-1.023263931E-1,2.610368490E0,2.660108581E0
2.885761517E0,8.072633147E-1,-1.140031815E-1,2.407383680E0,2.541685852E0
2.890787298E0,1.001037836E0,-1.482954025E-1,2.182856083E0,2.406019317E0
2.895813079E0,1.012917995E0,-1.142892838E-1,2.055025101E0,2.293947050E0
2.900838861E0,1.044897795E0,-5.513286591E-2,1.994143248E0,2.251989859E0
2.905927559E0,9.674181938E-1,-2.052946091E-1,1.926953197E0,2.165916079E0
2.910955840E0,7.735279799E-1,-4.158706665E-1,1.136789560E0,1.436518170E0
2.915984121E0,6.292271018E-1,-5.101804733E-1,1.616080403E0,1.807740781E0
2.921018704E0,5.288869739E-1,-5.599689484E-1,1.724593401E0,1.888785073E0
2.926047402E0,5.243562460E-1,-7.323713303E-1,2.053954124E0,2.242776133E0
2.931076100E0,3.373575211E-1,-8.406085968E-1,2.367471933E0,2.534828646E0
2.936104798E0,3.896355629E-2,-8.799371719E-1,2.525202751E0,2.674407695E0
2.941097142E0,-4.906877875E-1,-8.074769974E-1,2.674345732E0,2.836356589E0
2.946123861E0,-9.567340016E-1,-7.383928299E-1,2.749193668E0,3.003103353E0
2.951150579E0,-1.527351141E0,-6.680994034E-1,2.757303476E0,3.222092609E0
2.956127350E0,-2.068977356E0,-6.494302750E-1,2.638664961E0,3.415403308E0
2.961150788E0,-2.497627974E0,-6.300029755E-1,2.387862206E0,3.512397352E0
2.966192923E0,-2.809358835E0,-6.291408539E-1,2.053693771E0,3.536378569E0
2.971218236E0,-3.013761997E0,-7.042942047E-1,1.607812166E0,3.487671381E0
2.976228809E0,-3.153949738E0,-8.075819016E-1,1.049530983E0,3.420687469E0
2.981252611E0,-3.087086678E0,-9.724121094E-1,3.632952571E-1,3.256942264E0
2.986276413E0,-2.865534544E0,-1.174705505E0,-3.609352112E-1,3.117931281E0
2.991300215E0,-2.584404707E0,-1.294733047E0,-1.182348847E0,3.123048215E0
2.996321882E0,-2.338369608E0,-1.380286217E0,-1.562102556E0,3.132623000E0
3.001345579E0,-2.083429098E0,-1.421814919E0,-1.821494818E0,3.111282347E0
3.006369277E0,-1.899732828E0,-1.362080574E0,-1.883740187E0,3.002120151E0
3.011392975E0,-1.810009599E0,-1.249178886E0,-1.710133791E0,2.785882306E0
3.016472246E0,-1.780779481E0,-1.226677895E0,-1.788563728E0,2.806220666E0
3.021498704E0,-1.924442053E0,-1.208658218E0,-1.839912415E0,2.923971545E0
3.026521777E0,-2.103010654E0,-1.128230095E0,-2.089388847E0,3.171924135E0
3.031547871E0,-2.273496628E0,-1.004653931E0,-2.298167706E0,3.385216572E0
3.036570892E0,-2.507977962E0,-8.619041443E-1,-2.495549679E0,3.641510732E0
3.041596673E0,-2.629741430E0,-7.191143036E-1,-2.672603607E0,3.817784097E0
3.046632871E0,-2.725434780E0,-6.288223267E-1,-2.815615892E0,3.968766195E0
3.051659642E0,-2.804466724E0,-5.383815765E-1,-2.757496834E0,3.969720030E0
3.056686413E0,-2.771240473E0,-5.147209167E-1,-2.680507660E0,3.889708562E0
3.061713184E0,-2.750462055E0,-4.908523560E-1,-2.455365181E0,3.719515523E0
3.066694954E0,-2.555236816E0,-5.434331894E-1,-2.196264744E0,3.412936220E0
3.071719434E0,-2.372969866E0,-5.575571060E-1,-1.927402854E0,3.107529191E0
3.076743913E0,-2.160079479E0,-5.047988892E-1,-1.504573345E0,2.680392924E0
3.081779850E0,-1.868363976E0,-3.567724228E-1,-1.056410074E0,2.175792443E0
3.086805111E0,-1.482746124E0,-1.330785751E-1,-5.482671261E-1,1.586456056E0
3.091827454E0,-1.107832074E0,1.228551865E-1,-7.974112034E-2,1.117472124E0
3.096852402E0,-9.293220043E-1,4.536848068E-1,3.311697245E-1,1.085883363E0
3.101876934E0,-8.458834887E-1,8.638353348E-1,5.512897968E-1,1.328777936E0
3.106901829E0,-7.805986404E-1,1.204830170E0,6.434136629E-1,1.573191380E0
3.111930736E0,-6.809132099E-1,1.558051109E0,5.405957699E-1,1.784211267E0
3.116956048E0,-5.950201154E-1,1.942698479E0,4.004050493E-1,2.070857436E0
3.121981361E0,-6.620516777E-1,2.378013611E0,2.078276873E-1,2.477186611E0
3.127006673E0,-8.300390244E-1,2.830731392E0,7.660627365E-2,2.950910625E0
3.132035684E0,-1.099810004E0,3.334507942E0,-4.175364971E-2,3.511448224E0
3.137061152E0,-1.548985481E0,3.789111137E0,-5.217635632E-2,4.093829699E0
3.142086621E0,-2.192993879E0,4.223538399E0,3.992474079E-2,4.759106297E0
3.147112923E0,-2.928005457E0,4.633241653E0,1.673742533E-1,5.483444020E0
3.152138444E0,-3.549986124E0,4.898877144E0,3.160965443E-1,6.058161089E0
3.157163965E0,-3.988827705E0,5.082961082E0,3.810117245E-1,6.472434609E0
3.162221204E0,-4.260143757E0,5.171390533E0,4.913635254E-1,6.718150266E0
3.167248861E0,-4.483971119E0,5.107036591E0,5.225125551E-1,6.816218827E0
3.172276517E0,-4.818194389E0,4.837568283E0,7.663816214E-1,6.870546183E0
3.177302975E0,-5.238865852E0,4.521098137E0,9.695237875E-1,6.987561818E0
3.182330579E0,-5.798643112E0,4.415810585E0,1.352905273E0,7.413096367E0
3.187358184E0,-6.439742088E0,4.535649300E0,1.764217496E0,8.071855803E0
3.192350215E0,-7.104202747E0,4.693717003E0,2.161624432E0,8.784833303E0
3.197375423E0,-7.720315933E0,4.755975723E0,2.375313282E0,9.373617038E0
3.202398184E0,-8.220396042E0,4.627023697E0,2.420314550E0,9.738695082E0
3.207423132E0,-8.575205803E0,4.316850662E0,2.215739489E0,9.852860279E0
3.212449954E0,-9.070700645E0,3.935821533E0,1.800098062E0,1.005030618E1
3.217475111E0,-9.724617004E0,3.565500259E0,1.191982985E0,1.042601513E1
3.222500267E0,-9.699111938E0,2.799687386E0,6.487274766E-1,1.011592157E1
3.227525423E0,-9.408599854E0,1.763206482E0,4.564375877E-1,9.583265809E0
3.232577454E0,-9.113156319E0,4.848098755E-1,6.397174597E-1,9.148436868E0
3.237603965E0,-8.741771698E0,-1.112047195E0,7.684756517E-1,8.845664261E0
3.242642975E0,-7.913671017E0,-2.711658001E0,-3.384119272E-2,8.365430252E0
3.247670684E0,-6.515928268E0,-4.328494072E0,-3.378332615E0,8.520933833E0
3.252698392E0,-5.153699875E0,-5.651761532E0,-5.748272419E0,9.567949969E0
3.257726100E0,-3.802663565E0,-6.586245537E0,-6.765676022E0,1.017905951E1
3.262746777E0,-2.225512505E0,-7.170698166E0,-6.752106190E0,1.009766092E1
3.267774121E0,-1.121895671E0,-7.400894165E0,-6.250895500E0,9.752208924E0
3.272801465E0,-5.023541451E-1,-7.540255547E0,-5.435613632E0,9.308797396E0
3.277828809E0,-1.046517491E-1,-7.450087547E0,-4.406302452E0,8.656226531E0
3.282867194E0,-4.871183634E-2,-7.030020714E0,-3.409524441E0,7.813348897E0
3.287895111E0,2.429368496E-1,-6.404330254E0,-2.399855614E0,6.843520386E0
3.292923027E0,4.259238839E-1,-5.372007847E0,-1.522776842E0,5.599886496E0
3.297944069E0,6.484838128E-1,-3.818234444E0,-8.184857368E-1,3.958454803E0
3.302971517E0,1.102714062E0,-1.671315670E0,-2.363439798E-1,2.016217460E0
3.308008496E0,1.115502238E0,3.611621857E-1,2.499078512E-1,1.198848323E0
3.313036882E0,2.140213251E-1,1.993511200E0,1.281969309E0,2.379776742E0
3.318065267E0,-1.760730267E0,3.543113708E0,2.985039473E0,4.956237129E0
3.323060215E0,-4.355400085E0,5.188158989E0,4.858521938E0,8.336170525E0
3.328086361E0,-7.416041374E0,7.441124916E0,6.709350109E0,1.246528734E1
3.333108809E0,-9.974245071E0,9.898680687E0,7.084836006E0,1.573735509E1
3.338134590E0,-1.129994488E1,1.155456066E1,7.486733437E0,1.781145148E1
3.343160371E0,-1.161934662E1,1.309137821E1,8.239706993E0,1.934647696E1
3.348186152E0,-1.056144524E1,1.380423737E1,8.764787674E0,1.946593429E1
3.353234850E0,-8.332473755E0,1.346832943E1,8.501533508E0,1.797504071E1
3.358261725E0,-5.524870396E0,1.250489140E1,8.592470169E0,1.614704448E1
3.363288600E0,-2.937314272E0,1.119254303E1,8.378690720E0,1.428647237E1
3.368315475E0,-3.295266628E-1,9.661139488E0,7.544707775E0,1.226249646E1
3.373287246E0,1.494330168E0,8.163841248E0,7.532614708E0,1.120810470E1
3.378311309E0,2.961109638E0,6.744636536E0,7.228582859E0,1.032040224E1
3.383351882E0,3.963811398E0,5.517795563E0,5.813365459E0,8.941648988E0
3.388377663E0,4.302120209E0,4.510905266E0,4.529665947E0,7.705477156E0
3.393389694E0,3.999140739E0,3.565007210E0,3.357017279E0,6.322338813E0
3.398414121E0,3.306551933E0,2.641117096E0,2.936070204E0,5.150659515E0
3.403439173E0,2.469774961E0,1.705098152E0,3.132911205E0,4.338465246E0
3.408463652E0,1.700854301E0,9.719257355E-1,3.781542540E0,4.258827182E0
3.413488132E0,1.236119747E0,2.357530594E-1,4.812279701E0,4.974093632E0
3.418512611E0,1.131729841E0,-5.315074921E-1,5.845029831E0,5.977264121E0
3.423537090E0,1.215375662E0,-1.152235508E0,6.805581093E0,7.008617458E0
3.428573340E0,1.521454811E0,-1.769513607E0,7.532671928E0,7.885882926E0
3.433598288E0,1.931442380E0,-2.354215622E0,7.979389191E0,8.540693925E0
3.438641517E0,2.298537493E0,-2.819869041E0,8.347222328E0,9.105550868E0
3.443668340E0,2.680936813E0,-3.238001823E0,8.503006935E0,9.485420652E0
3.448695163E0,3.017457247E0,-3.641923904E0,8.413496017E0,9.651713485E0
3.453703340E0,3.351472378E0,-3.950181961E0,8.242028236E0,9.734851518E0
3.458728913E0,3.769680977E0,-4.267968655E0,8.122473717E0,9.919709188E0
3.463754486E0,4.009261608E0,-4.427754879E0,7.925960541E0,9.924718757E0
3.468808652E0,4.242967129E0,-4.606415272E0,7.485770226E0,9.760050593E0
3.473836152E0,4.311903954E0,-4.655689716E0,7.214773655E0,9.608377664E0
3.478863652E0,4.416931152E0,-4.709754467E0,6.926248550E0,9.469106976E0
3.483891152E0,4.577271461E0,-4.759139538E0,6.768063545E0,9.455554311E0
3.488910996E0,4.678365707E0,-4.698815823E0,6.686686993E0,9.416886893E0
3.493938132E0,4.744682312E0,-4.591142178E0,6.738732815E0,9.434040316E0
3.498965267E0,4.786233902E0,-4.507805347E0,6.608323097E0,9.321924596E0
3.504010736E0,4.817858219E0,-4.410558224E0,6.323692799E0,9.091417506E0
3.509039017E0,4.806105614E0,-4.237423420E0,6.070913792E0,8.826686959E0
3.514067298E0,4.765301704E0,-4.070060253E0,5.705575943E0,8.475086291E0
3.519095579E0,4.680976868E0,-3.808242798E0,5.313300133E0,8.040237306E0
3.524144225E0,4.629552364E0,-3.437907219E0,4.616306305E0,7.386626093E0
3.529173548E0,4.620044708E0,-3.031291008E0,3.724145651E0,6.663542535E0
3.534202871E0,4.752972603E0,-2.703515053E0,2.869649887E0,6.175324500E0
3.539232194E0,4.965966702E0,-2.378260612E0,2.309319735E0,5.970754262E0
3.544222454E0,5.206116676E0,-2.069683075E0,1.722777367E0,5.861330969E0
3.549249694E0,5.468811512E0,-1.629251957E0,9.475997686E-1,5.784488449E0
3.554276934E0,5.677433014E0,-1.123700619E0,-1.965446472E-1,5.790904809E0
3.559304173E0,5.731754780E0,-2.900114059E-1,-1.484819055E0,5.928052555E0
3.564272663E0,5.650473595E0,7.373981476E-1,-3.070065498E0,6.472782248E0
3.569296934E0,5.839955330E0,2.459830284E0,-7.723560333E0,9.990456822E0
3.574323965E0,4.745592594E0,8.323739052E0,-1.746870613E1,1.992387951E1
3.579348548E0,3.927927732E0,1.090516281E1,-1.440376091E1,1.848836176E1
3.584380788E0,2.840708256E0,1.011567974E1,-1.586268139E1,1.902685631E1
3.589406100E0,5.124745369E-1,9.248855591E0,-1.526136017E1,1.785253691E1
3.594431777E0,-2.355478048E0,8.895577431E0,-1.078435516E1,1.417680821E1
3.599457142E0,-4.491412163E0,8.254434586E0,-6.014989853E0,1.115744489E1
3.604479850E0,-5.386317730E0,7.736283302E0,-2.518018246E0,9.757198056E0
3.609504954E0,-7.046846390E0,7.188529968E0,7.700681686E-1,1.009584133E1
3.614530059E0,-6.809662819E0,5.664246559E0,2.236062050E0,9.135380139E0
3.619555163E0,-5.191288471E0,4.030711174E0,1.376781702E0,6.715030634E0
3.624619694E0,-3.622906923E0,2.599956512E0,-2.222979069E-1,4.464823043E0
3.629646777E0,-3.397005081E0,1.578560829E0,-1.024175167E0,3.883353266E0
3.634670944E0,-3.080216169E0,2.252435684E-1,-9.250128269E-1,3.223990547E0
3.639697715E0,-3.296847105E0,-1.238956928E0,6.521897316E-1,3.581838432E0
3.644724486E0,-3.480509520E0,-2.669590950E0,2.707577467E0,5.154768481E0
3.649748704E0,-2.919302702E0,-3.750512123E0,4.932712555E0,6.849841064E0
3.654775319E0,-1.921682358E0,-4.223469257E0,6.920117855E0,8.331781729E0
3.659801934E0,-8.820273876E-1,-4.270514965E0,8.282576561E0,9.360360296E0
3.664828548E0,2.269952297E-1,-4.202853680E0,9.062052727E0,9.991811923E0
3.669823600E0,1.260608554E0,-4.269440174E0,9.255705833E0,1.027060581E1
3.674848600E0,1.960862637E0,-4.369633198E0,8.777855873E0,9.999471501E0
3.679872507E0,2.551608562E0,-4.465853214E0,8.057946205E0,9.559552721E0
3.684897402E0,2.667882681E0,-4.190962315E0,7.337214947E0,8.860952900E0
3.689922298E0,2.613667488E0,-2.929685593E0,6.858658791E0,7.902880223E0
3.694949746E0,2.759204388E0,-8.422212601E-1,7.076507568E0,7.641956874E0
3.699974798E0,2.155499935E0,1.414540291E0,7.737142563E0,8.155395713E0
3.704999850E0,5.674307346E-1,3.418987274E0,8.339104652E0,9.030621132E0
3.710024902E0,-8.115148544E-1,5.160651207E0,8.654077530E0,1.010860698E1
3.715051882E0,-1.654536009E0,6.585763931E0,8.361072540E0,1.077113318E1
3.720077038E0,-1.561702251E0,7.655336380E0,7.615715981E0,1.091064704E1
3.725102194E0,-8.681983948E-1,8.508050919E0,6.434180260E0,1.070230697E1
3.730163079E0,9.826509953E-1,8.489362717E0,4.779274940E0,9.791647015E0
3.735190632E0,1.579522371E0,9.891507149E0,-1.306650996E0,1.010169003E1
3.740218184E0,1.460492373E0,1.127199554E1,-1.026890659E1,1.531800784E1
3.745245736E0,1.506458521E0,1.031322575E1,-8.362254143E0,1.336260966E1
3.750239277E0,2.101326942E0,8.286794662E0,-5.725543022E0,1.028923630E1
3.755265163E0,2.305737019E0,6.440061569E0,-3.563570261E0,7.712966305E0
3.760290527E0,2.936685085E0,4.856093407E0,-7.991449833E-1,5.731002981E0
3.765316361E0,3.510976791E0,3.617497444E0,1.895883679E-1,5.044718975E0
3.770342194E0,3.926120043E0,2.395015717E0,7.407939434E-1,4.658250159E0
3.775397350E0,3.983179092E0,1.250976562E0,8.855609298E-1,4.267888963E0
3.780425163E0,3.970768929E0,3.767127991E-1,1.023743033E0,4.117883949E0
3.785451361E0,4.042240143E0,-2.428016663E-1,1.709278226E0,4.395485192E0
3.790479017E0,4.212022781E0,-7.179965973E-1,2.911607265E0,5.170504027E0
3.795506673E0,3.926314831E0,-1.201717854E0,2.944967747E0,5.053009893E0
3.800534329E0,3.563478231E0,-1.660521984E0,2.113152266E0,4.463308511E0
3.805555684E0,3.317868233E0,-2.042434216E0,1.632511854E0,4.224320311E0
3.810583027E0,3.211467743E0,-2.252326488E0,9.062592387E-1,4.025891887E0
3.815605892E0,3.229257822E0,-2.342936993E0,6.440945864E-1,4.041326226E0
3.820632767E0,3.294790268E0,-2.333301067E0,6.028239727E-1,4.082074659E0
3.825662194E0,3.265277624E0,-2.295019627E0,9.505074620E-1,4.102757303E0
3.830689329E0,3.146780968E0,-2.122601986E0,1.047610402E0,3.937658848E0
3.835716465E0,2.725038290E0,-1.815975666E0,1.294347525E0,3.521212407E0
3.840722975E0,1.982384443E0,-1.422991276E0,1.774374962E0,3.017144139E0
3.845748704E0,9.900689125E-1,-9.393482208E-1,2.418565035E0,2.777061101E0
3.850774434E0,2.798795700E-3,-4.656896591E-1,3.204836845E0,3.238495623E0
3.855808392E0,-7.548096180E-1,-7.388401031E-2,3.816047192E0,3.890682790E0
3.860834642E0,-1.344033360E0,3.081731796E-1,4.189843655E0,4.410916711E0
3.865860892E0,-1.764516115E0,6.329631805E-1,4.288744450E0,4.680543608E0
3.870887142E0,-1.986778259E0,7.861680984E-1,4.008500576E0,4.542402998E0
3.875884694E0,-1.936662436E0,8.925800323E-1,3.769199848E0,4.330615199E0
3.880909486E0,-1.522671580E0,9.136657715E-1,3.577555656E0,3.994022829E0
3.885943027E0,-1.534696460E0,1.040853500E0,3.192142010E0,3.691671687E0
3.890968704E0,-1.633723736E0,1.292895317E0,2.716024399E0,3.423071732E0
3.895994382E0,-2.232714176E0,1.425148010E0,3.614916801E-1,2.673337928E0
3.901042090E0,-1.358290195E0,9.396486282E-1,7.396655083E-1,1.809695241E0
3.906069225E0,6.813967228E-2,1.535768509E-1,1.319674492E0,1.330326888E0
3.911096361E0,1.334128261E0,-6.637430191E-1,2.547216177E0,2.951061379E0
3.916128236E0,1.784081221E0,-1.257532120E0,3.842582226E0,4.419250049E0
3.921155684E0,1.464793801E0,-1.584201813E0,4.612552166E0,5.092244471E0
3.926183132E0,8.522715569E-1,-1.859134197E0,5.342200279E0,5.720301617E0
3.931210579E0,1.682609618E-1,-2.010852337E0,5.854185581E0,6.192198938E0
3.936256725E0,-4.233400822E-1,-2.111643314E0,6.017364502E0,6.391160291E0
3.941285111E0,-8.868757486E-1,-2.171612263E0,5.935409546E0,6.382126205E0
3.946313496E0,-1.344276905E0,-2.138741970E0,5.675916195E0,6.212674325E0
3.951341882E0,-1.672735572E0,-2.209703922E0,5.258277893E0,5.943931537E0
3.956338809E0,-1.830568552E0,-2.217409611E0,4.836054802E0,5.626305418E0
3.961365632E0,-1.867238283E0,-2.305685520E0,4.336276531E0,5.254146808E0
3.966392454E0,-1.825923681E0,-2.254746914E0,3.749803543E0,4.741192629E0
3.971415892E0,-1.883344531E0,-2.165441990E0,3.157915831E0,4.267148700E0
3.976442454E0,-2.149025917E0,-2.100168705E0,2.383317947E0,3.835260802E0
3.981469017E0,-2.588533878E0,-1.953817844E0,1.439927459E0,3.548422592E0
3.986495579E0,-2.957521200E0,-1.826943874E0,2.933033109E-1,3.488650513E0
3.991522142E0,-3.451979160E0,-1.614242077E0,-9.577455521E-1,3.929276543E0
3.996541048E0,-3.588607788E0,-1.554794312E0,-2.368104935E0,4.572024955E0
4.001567298E0,-3.510949612E0,-1.313505173E0,-3.734338760E0,5.291252119E0
4.006596152E0,-3.237424135E0,-1.143976212E0,-5.231246948E0,6.257438872E0
4.011622663E0,-2.700278759E0,-1.050814629E0,-7.966408253E0,8.476991047E0
4.016649173E0,-1.955631495E0,-8.711996078E-1,-1.104446983E1,1.125005765E1
4.021698496E0,-1.537979841E0,-6.481666565E-1,-1.097454548E1,1.110072747E1
4.026726517E0,-1.378894806E0,-4.345092773E-1,-9.291363716E0,9.403169088E0
4.031728704E0,-1.138483524E0,-4.312934875E-1,-7.351521969E0,7.451646400E0
4.036754121E0,-8.505219221E-1,-2.510814667E-1,-5.271083832E0,5.345161757E0
4.041779538E0,-8.347045779E-1,-3.790283203E-2,-3.931419373E0,4.019232096E0
4.046812975E0,-1.153054833E0,1.554307938E-1,-3.185954332E0,3.391754588E0
4.051838913E0,-1.681667805E0,4.246034622E-1,-2.449822903E0,3.001654037E0
4.056864850E0,-2.469698191E0,7.696800232E-1,-1.770704031E0,3.134837995E0
4.061885163E0,-3.155297041E0,1.076003075E0,-8.948348165E-1,3.451725856E0
4.066910684E0,-3.840907097E0,1.415548325E0,-3.766728938E-1,4.110745292E0
4.071937507E0,-4.370726585E0,1.692847252E0,2.390300632E-1,4.693199130E0
4.076963184E0,-4.627055645E0,1.779077530E0,7.800315022E-1,5.018287551E0
4.081984329E0,-4.606319904E0,1.698499680E0,1.318409443E0,5.083432667E0
4.087009538E0,-4.404708862E0,1.480014801E0,1.902557731E0,5.021118391E0
4.092034746E0,-4.108033180E0,1.238474846E0,2.451654434E0,4.941696674E0
4.097054329E0,-3.624424934E0,9.210729599E-1,2.875697613E0,4.717464177E0
4.102079173E0,-3.148876905E0,6.806802750E-1,3.213798761E0,4.550522375E0
4.107104017E0,-2.803764343E0,5.072937012E-1,3.365880966E0,4.409942865E0
4.112110059E0,-2.529703379E0,4.052858353E-1,3.418320656E0,4.271834723E0
4.117133600E0,-2.378612041E0,4.653654099E-1,3.466322899E0,4.229628193E0
4.122157142E0,-2.411949158E0,6.442985535E-1,3.561285019E0,4.349180423E0
4.127180684E0,-2.768095970E0,1.118980408E0,3.611088991E0,4.685556120E0
4.132246257E0,-3.136543512E0,1.769688606E0,3.815850019E0,5.246943333E0
4.137271934E0,-3.531264544E0,2.447916985E0,3.691807747E0,5.664942302E0
4.142306829E0,-3.871611118E0,2.986399651E0,3.315572262E0,5.907704711E0
4.147333444E0,-4.315336704E0,3.437989235E0,2.877729893E0,6.222799224E0
4.152360059E0,-4.795227051E0,3.788453102E0,2.205725431E0,6.497061186E0
4.157386673E0,-5.358952522E0,3.994873047E0,1.610353231E0,6.875363287E0
4.162371517E0,-5.896306515E0,4.067022324E0,7.464948297E-1,7.201691164E0
4.167396048E0,-6.322618008E0,4.010198593E0,1.207013130E-1,7.488107907E0
4.172420579E0,-6.781895638E0,3.843867302E0,-4.117577672E-1,7.806341572E0
4.177445371E0,-7.193228722E0,3.687825203E0,-5.785491467E-1,8.104154076E0
4.182469902E0,-7.499622345E0,3.852961540E0,1.414448023E-1,8.432654065E0
4.187502454E0,-7.442920685E0,4.142548561E0,9.938681126E-1,8.575870261E0
4.192527819E0,-7.424482346E0,4.536783218E0,1.728410959E0,8.870893107E0
4.197552923E0,-7.491022110E0,4.987219810E0,2.357267380E0,9.302928743E0
4.202578236E0,-7.622365952E0,5.115518570E0,2.706036568E0,9.570351448E0
4.207603548E0,-7.689050674E0,4.902732849E0,2.738650322E0,9.521475477E0
4.212628861E0,-7.709903717E0,4.181715965E0,2.815852642E0,9.211861367E0
4.217663027E0,-7.852140427E0,3.029449463E0,3.504499435E0,9.116753239E0
4.222688757E0,-7.703980446E0,1.494045258E0,5.018743038E0,9.315109641E0
4.227708652E0,-7.535207748E0,-1.426610947E-1,5.187256336E0,9.149171345E0
4.232733809E0,-7.107366562E0,-1.857050419E0,4.104235172E0,8.414751455E0
4.237758965E0,-6.321974754E0,-3.729885101E0,9.057160616E-1,7.395926531E0
4.242784121E0,-5.081828117E0,-5.444470882E0,-5.572465420E0,9.301591856E0
4.247809277E0,-3.931557655E0,-6.665462494E0,-9.660329819E0,1.237770205E1
4.252889017E0,-3.162603617E0,-7.364731789E0,-9.468057632E0,1.240505749E1
4.257916309E0,-2.304541826E0,-7.671711922E0,-8.539871216E0,1.170877779E1
4.262948600E0,-1.693358541E0,-7.850055695E0,-7.504891872E0,1.099155310E1
4.267976413E0,-1.272563457E0,-7.856797218E0,-6.414238930E0,1.022209085E1
4.273004225E0,-1.009047747E0,-7.706363678E0,-5.595780849E0,9.577002757E0
4.278032038E0,-9.127844572E-1,-7.274323463E0,-4.932111263E0,8.835987711E0
4.283004069E0,-4.588737488E-1,-6.665763855E0,-3.761320591E0,7.667496689E0
4.288028965E0,-6.961488724E-2,-5.603564739E0,-2.672482729E0,6.208618844E0
4.293053861E0,1.495449543E-1,-4.221446037E0,-1.920238733E0,4.640074044E0
4.298103444E0,6.181567907E-2,-2.303949833E0,-9.984908104E-1,2.511770274E0
4.303130007E0,-4.052293897E-1,7.762527466E-2,1.674728990E-1,4.452905943E-1
4.308159382E0,-1.547540784E0,2.536494255E0,1.217980146E0,3.211255396E0
4.313186204E0,-3.567873955E0,4.667433739E0,2.194250584E0,6.271315483E0
4.318213027E0,-6.169675827E0,6.577432632E0,3.763518572E0,9.771979937E0
4.323239850E0,-8.734410286E0,8.664764404E0,5.339359283E0,1.341181654E1
4.328236673E0,-1.048724270E1,1.059453773E1,5.419635296E0,1.586187051E1
4.333261986E0,-1.124589825E1,1.238529015E1,5.312646389E0,1.755248846E1
4.338309329E0,-1.139152622E1,1.405924225E1,5.057482719E0,1.878848833E1
4.343336934E0,-9.831202507E0,1.491607189E1,4.799300194E0,1.849797356E1
4.348367507E0,-7.950901985E0,1.437179470E1,5.433203697E0,1.729985629E1
4.353395371E0,-6.386692047E0,1.535406303E1,6.530236721E0,1.786563961E1
4.358423236E0,-4.206993103E0,1.471859360E1,7.416157722E0,1.700985549E1
4.363444382E0,-2.489220619E0,1.372971344E1,7.588544369E0,1.588355301E1
4.368471777E0,-5.349987745E-1,1.225829506E1,7.418987751E0,1.433852854E1
4.373499173E0,1.505548716E0,1.055795860E1,6.996652603E0,1.275501135E1
4.378526569E0,2.970803022E0,9.054845810E0,6.666291237E0,1.162993302E1
4.383551204E0,3.701577187E0,7.562306404E0,6.427019119E0,1.059229562E1
4.388578496E0,3.570780754E0,6.252519608E0,6.134484291E0,9.459195217E0
4.393605788E0,2.917411804E0,5.005498886E0,6.070644379E0,8.391604966E0
4.398633079E0,2.202685833E0,3.873564720E0,6.757412910E0,8.094378158E0
4.403619069E0,1.641710639E0,2.789728165E0,7.566374302E0,8.229691193E0
4.408644277E0,1.118496180E0,1.716659546E0,8.348969460E0,8.596699642E0
4.413673913E0,1.103646994E0,7.023086548E-1,8.984067917E0,9.078807767E0
4.418699538E0,1.418655396E0,-3.059635162E-1,9.325193405E0,9.437448217E0
4.423720371E0,1.948533058E0,-1.145432472E0,9.397620201E0,9.665612349E0
4.428745527E0,2.526396275E0,-1.973874569E0,9.250341415E0,9.790182595E0
4.433770684E0,3.253105640E0,-2.642865181E0,8.884357452E0,9.823402670E0
4.438813392E0,3.909889698E0,-3.147515297E0,8.505601883E0,9.876201364E0
4.443839746E0,4.750574589E0,-3.535961151E0,8.003631592E0,9.956359718E0
4.448866100E0,5.417923927E0,-3.741137505E0,7.392041206E0,9.899105147E0
4.453878496E0,6.132905006E0,-3.921094894E0,6.770357609E0,9.941089032E0
4.458903913E0,6.557251930E0,-3.932126999E0,6.300250053E0,9.907185592E0
4.463929329E0,6.744031429E0,-3.831995964E0,5.698210239E0,9.624746902E0
4.468954746E0,6.592573166E0,-3.568553925E0,5.274335861E0,9.165981499E0
4.473980163E0,6.412879944E0,-3.324123383E0,4.784536362E0,8.664099124E0
4.479020840E0,6.208402634E0,-3.075144768E0,4.310660362E0,8.159814420E0
4.484046882E0,6.182574749E0,-2.889428139E0,3.704712868E0,7.765173722E0
4.489072923E0,6.190810204E0,-2.662276268E0,2.966269970E0,7.362920850E0
4.494143340E0,6.357403755E0,-2.599835396E0,2.093950987E0,7.180554110E0
4.499172298E0,6.641473770E0,-2.569222450E0,7.767019272E-1,7.163333283E0
4.504193600E0,6.851824760E0,-2.613796234E0,-5.560783148E-1,7.354499058E0
4.509221829E0,6.944974899E0,-2.528245926E0,-8.910597563E-1,7.444373130E0
4.514262559E0,7.163955688E0,-2.432427406E0,-7.967720032E-1,7.607483803E0
4.519292090E0,7.134935379E0,-2.340409279E0,-9.352014065E-1,7.566995449E0
4.524321621E0,7.082690239E0,-2.323616028E0,-1.140462399E0,7.540845241E0
4.529351152E0,6.891952991E0,-2.276665688E0,-1.070257187E0,7.336734501E0
4.534380684E0,6.887245655E0,-2.266662598E0,-8.990362883E-1,7.306173985E0
4.539410215E0,6.991302967E0,-2.226805687E0,-2.857803106E-1,7.342932053E0
4.544373288E0,7.079907417E0,-2.228757858E0,3.013012409E-1,7.428541786E0
4.549400632E0,7.450309753E0,-2.258022308E0,9.618854523E-1,7.844170051E0
4.554427975E0,7.959154129E0,-2.232840538E0,1.391574144E0,8.382731650E0
4.559415736E0,8.468721390E0,-1.961463928E0,1.289374232E0,8.788007091E0
4.564440371E0,8.763587952E0,-1.501551151E0,1.039438248E0,8.951846822E0
4.569465007E0,9.058559418E0,-1.283771992E0,7.057346106E-1,9.176253625E0
4.574489642E0,9.512323380E0,-1.259831905E0,4.100391269E-1,9.604145178E0
4.579533757E0,9.639437675E0,-1.227767467E0,-2.623943090E-1,9.720855026E0
4.584559329E0,9.151693344E0,-1.191098690E0,-1.150279403E0,9.300287622E0
4.589610371E0,8.065377235E0,-1.216356754E0,-2.192237377E0,8.446048687E0
4.594638340E0,6.851221085E0,-1.303040028E0,-3.465753078E0,7.787720338E0
4.599666309E0,5.375500679E0,-1.288376331E0,-4.721307755E0,7.269571379E0
4.604689902E0,3.934745312E0,-1.152945995E0,-6.127621651E0,7.372872726E0
4.609717559E0,2.538314581E0,-5.422096252E-1,-8.808147430E0,9.182619090E0
4.614745215E0,3.931498528E-2,8.400831223E-1,-1.217422199E1,1.220323590E1
4.619772871E0,-2.704992771E0,2.795018196E0,-1.444292450E1,1.495751252E1
4.624765996E0,-5.708961487E0,4.936395645E0,-1.489434433E1,1.669735716E1
4.629791934E0,-8.710454941E0,5.816684723E0,-1.184109116E1,1.580877244E1
4.634817871E0,-1.075683022E1,5.126003265E0,-5.216183662E0,1.300745470E1
4.639883132E0,-1.133967781E1,4.049965858E0,2.169733047E0,1.223512394E1
4.644911673E0,-1.157792091E1,3.708766937E0,8.804708481E0,1.501086594E1
4.649940215E0,-1.109223080E1,3.479439735E0,1.321407700E1,1.759988397E1
4.654929017E0,-1.063328171E1,2.896362305E0,1.392183399E1,1.775593017E1
4.659954954E0,-1.034892559E1,2.400751114E0,1.169036579E1,1.579647173E1
4.664970736E0,-1.008338833E1,1.379690170E0,8.616292953E0,1.333487043E1
4.669995632E0,-8.673156738E0,-1.058282852E-1,5.590282440E0,1.031921049E1
4.675015215E0,-7.418102264E0,-1.178150654E0,3.570414782E0,8.316498174E0
4.680039590E0,-6.257068157E0,-2.093765736E0,1.858980298E0,6.854966421E0
4.685063965E0,-5.231213570E0,-2.653395653E0,5.298768282E-1,5.889556295E0
4.690088340E0,-4.098278046E0,-3.126142502E0,-3.991669416E-1,5.169911424E0
4.695112715E0,-2.773585081E0,-3.393228531E0,-2.696341872E-1,4.390840086E0
4.700223079E0,-1.366863012E0,-3.273128510E0,-2.315098643E-1,3.554614121E0
4.705250996E0,2.631385326E-1,-2.360678673E0,-7.794159651E-2,2.376577492E0
4.710278913E0,1.089613676E0,5.730838776E-1,9.971022606E-1,1.584265133E0
4.715306829E0,7.648868561E-1,4.507470131E0,1.581151009E0,4.837600376E0
4.720313444E0,-5.718967915E-1,7.542076111E0,2.176753998E0,7.870720168E0
4.725340267E0,-2.816453934E0,8.968943596E0,3.670705795E0,1.009199896E1
4.730367090E0,-3.782299280E0,9.696281433E0,4.520383835E0,1.134713759E1
4.735366934E0,-3.426277637E0,9.565539360E0,4.438363552E0,1.108774065E1
4.740391934E0,-1.706514120E0,8.702254295E0,3.750631332E0,9.628533411E0
4.745379954E0,9.911110401E-1,7.146966934E0,2.653095722E0,7.687675485E0
4.750401413E0,3.141845226E0,5.874056816E0,1.739323854E0,6.884837135E0
4.755422871E0,3.292138100E0,4.785421371E0,-1.503592014E0,5.999934993E0
4.760474694E0,3.374426126E0,2.824897766E0,-1.487081647E-1,4.403284364E0
4.765498236E0,3.055856943E0,1.256435394E0,-1.760451317E0,3.743805603E0
4.770521777E0,2.739709616E0,9.290313721E-2,-2.863406181E0,3.964055339E0
4.775545319E0,2.252291203E0,-4.187841415E-1,-5.580795288E0,6.032700213E0
4.780604746E0,2.126112461E0,-4.194631577E-1,-6.538264751E0,6.888048308E0
4.785630059E0,2.689110756E0,1.178760529E-1,-6.132148743E0,6.696899254E0
4.790684902E0,3.692070007E0,8.000125885E-1,-4.847675323E0,6.145840636E0
4.795713184E0,4.003239632E0,1.421624184E0,-3.243420124E0,5.344784090E0
4.800741465E0,3.960022449E0,1.811058044E0,-1.599584341E0,4.639006263E0
4.805769746E0,3.907263279E0,1.954143524E0,-5.498743653E-1,4.403151719E0
4.810798027E0,3.782305956E0,1.970543861E0,4.402525723E-1,4.287505543E0
4.815756517E0,3.728778839E0,1.965783119E0,1.153263807E0,4.370138706E0
4.820781986E0,3.969602108E0,1.757625580E0,1.573608756E0,4.617708641E0
4.825836152E0,4.289834023E0,1.418615341E0,1.585184336E0,4.788314401E0
4.830864642E0,4.614221096E0,9.306297302E-1,1.343616366E0,4.895141771E0
4.835886777E0,5.034149170E0,4.329833984E-1,1.147527099E0,5.181404340E0
4.840914642E0,5.392446518E0,-3.559875488E-2,9.937882423E-1,5.483371389E0
4.845908027E0,5.556516171E0,-3.407669067E-1,1.131879568E0,5.680857804E0
4.850932559E0,5.583623409E0,-4.541778564E-1,1.402195692E0,5.774883606E0
4.855957090E0,5.398309231E0,-3.040828705E-1,1.869891167E0,5.721075241E0
4.860981621E0,4.847840309E0,-3.436374664E-2,2.433184624E0,5.424308614E0
4.866006152E0,4.157099247E0,1.919727325E-1,2.861088037E0,5.050163605E0
4.871040371E0,3.473932981E0,3.268499374E-1,3.253284931E0,4.770629317E0
4.876065319E0,2.654274940E0,3.748846054E-1,3.274234533E0,4.231586665E0
4.881090267E0,1.907567024E0,5.892324448E-1,3.669661760E0,4.177609874E0
4.886115215E0,1.500803232E0,5.964679718E-1,4.252329350E0,4.548679949E0
4.891164069E0,6.922550201E-1,4.878368378E-1,7.313108921E0,7.361980976E0
4.896190215E0,-9.080355167E-1,8.045539856E-1,3.949785233E0,4.131905008E0
4.901217454E0,1.103267431E0,-3.746986389E-3,3.440508366E0,3.613074989E0
4.906243704E0,3.547785282E-1,1.216897964E-1,4.216414452E0,4.233063552E0
4.911280267E0,1.045367956E0,8.396148682E-3,5.420044899E0,5.519941247E0
4.916307507E0,2.099618196E0,-2.518615723E-1,4.879672050E0,5.318179213E0
4.921316621E0,2.913593769E0,-4.430551529E-1,3.671417236E0,4.707932778E0
4.926341986E0,3.255361319E0,-4.025497437E-1,2.879274607E0,4.364590000E0
4.931383079E0,3.131494761E0,-3.889083862E-1,3.237383127E0,4.520858180E0
4.936410059E0,2.748722553E0,-3.877058029E-1,2.831680536E0,3.965375912E0
4.941437038E0,2.508185387E0,-5.090456009E-1,2.988626003E0,3.934718128E0
4.946463965E0,2.303418636E0,-7.480354309E-1,3.355010509E0,4.137800133E0
4.951490892E0,2.123818636E0,-1.114026070E0,4.301780224E0,4.925136828E0
4.956525579E0,1.212581992E0,-7.986316681E-1,3.898969650E0,4.160544671E0
4.961553288E0,1.036599636E0,-8.598442078E-1,4.164889336E0,4.377233606E0
4.966580996E0,9.048085213E-1,-9.673919678E-1,4.221825600E0,4.424741470E0
4.971623757E0,4.915535450E-1,-9.922266006E-1,4.186889172E0,4.330840502E0
4.976652454E0,-2.140498161E-2,-9.155120850E-1,3.971310139E0,4.075527545E0
4.981681152E0,-5.153114796E-1,-7.759256363E-1,3.753126383E0,3.866983858E0
4.986709850E0,-1.038962841E0,-6.264400482E-1,3.351499319E0,3.564325828E0
4.991739121E0,-1.660066843E0,-4.673147202E-1,2.829313278E0,3.313490395E0
4.996767871E0,-2.178426266E0,-2.461261749E-1,2.406189442E0,3.255129294E0
5.001789798E0,-2.594642878E0,-2.643423080E-1,1.598569751E0,3.058998818E0
5.006817819E0,-2.822975397E0,-2.251529694E-1,7.740390301E-1,2.935816815E0
5.011847923E0,-3.035457134E0,-3.764820099E-2,-1.152652502E-2,3.035712480E0
5.016876152E0,-3.117227316E0,-4.617786407E-2,-6.122869253E-1,3.177126660E0
5.021904382E0,-3.077485323E0,-1.020441055E-1,-1.580291986E0,3.461018878E0
5.026920944E0,-3.006406069E0,-1.236648560E-1,-2.237742424E0,3.749834877E0
5.031948392E0,-2.836796999E0,-2.304620743E-1,-2.581807613E0,3.842689232E0
5.036975840E0,-2.562818289E0,-3.552494049E-1,-2.589048624E0,3.660247601E0
5.042003288E0,-2.547161818E0,-3.784103394E-1,-2.488781691E0,3.581237497E0
5.046995840E0,-2.649878502E0,-3.862619400E-1,-2.379702091E0,3.582462338E0
5.052021465E0,-2.675625563E0,-4.171895981E-1,-2.260915279E0,3.527712745E0
5.057033288E0,-2.876904964E0,-3.899765015E-1,-2.370346308E0,3.747960174E0
5.062057507E0,-3.201442480E0,-2.951927185E-1,-2.592809677E0,4.130258432E0
5.067081725E0,-3.534484386E0,-2.094612122E-1,-2.851873159E0,4.546386961E0
5.072105944E0,-3.991173029E0,-6.575489044E-2,-3.248821735E0,5.146710456E0
5.077137975E0,-4.395239353E0,6.870269775E-3,-3.617435455E0,5.692452498E0
5.082162611E0,-4.690002441E0,8.039855957E-2,-3.820189953E0,6.049498996E0
5.087187246E0,-4.756493092E0,1.263141632E-1,-3.930037975E0,6.171335373E0
5.092216829E0,-4.690287113E0,1.113109589E-1,-3.780376673E0,6.025149884E0
5.097241777E0,-4.442922115E0,1.155567169E-2,-3.567297220E0,5.697832914E0
5.102268392E0,-4.104482651E0,-1.202745438E-1,-3.285787582E0,5.259053511E0
5.107293496E0,-3.865025043E0,-2.364807129E-1,-3.035527706E0,4.920240865E0
5.112318600E0,-3.579892635E0,-3.802785873E-1,-2.744260311E0,4.526721522E0
5.117343704E0,-3.492139339E0,-4.944496155E-1,-2.564422607E0,4.360708761E0
5.122381361E0,-3.476760864E0,-5.887145996E-1,-2.433586121E0,4.284482745E0
5.127407090E0,-3.475417137E0,-6.441831589E-1,-2.207873106E0,4.167517231E0
5.132432819E0,-3.579021931E0,-7.375707626E-1,-1.963479757E0,4.148332360E0
5.137458548E0,-3.462257385E0,-9.407205582E-1,-1.656960249E0,3.951923410E0
5.142494694E0,-3.087612152E0,-1.153172493E0,-1.287930489E0,3.538632581E0
5.147520944E0,-2.579202890E0,-1.375254631E0,-8.458108902E-1,3.042861961E0
5.152550840E0,-1.755183220E0,-1.645558834E0,-3.295631409E-1,2.428403565E0
5.157577454E0,-9.169230461E-1,-1.811474323E0,3.676774502E-1,2.063340448E0
5.162604069E0,-2.691317797E-1,-1.940645695E0,8.646256924E-1,2.141521706E0
5.167630684E0,2.084108591E-1,-1.914196491E0,1.426425338E0,2.396303933E0
5.172678913E0,3.727753162E-1,-1.780627728E0,1.820084572E0,2.573383840E0
5.177706569E0,2.723240852E-1,-1.487894535E0,1.879842162E0,2.412840051E0
5.182734225E0,1.699268818E-2,-1.131918907E0,1.730720639E0,2.068072314E0
5.187761882E0,-3.841641545E-1,-6.887311935E-1,1.411005855E0,1.616437526E0
5.192789538E0,-6.158676147E-1,-1.772603989E-1,1.020423889E0,1.204980947E0
5.197776413E0,-1.018721342E0,4.220342636E-1,7.393414974E-1,1.327603835E0
5.202802402E0,-1.654893517E0,1.099767685E0,4.473534822E-1,2.036734311E0
5.207828392E0,-2.630465746E0,1.832402229E0,5.744874477E-2,3.206298228E0
5.212854382E0,-3.602618217E0,2.539173126E0,-3.070573807E-1,4.418205792E0
5.217880371E0,-4.597160816E0,3.268446922E0,-6.183899641E-1,5.674419706E0
5.222944590E0,-5.348177910E0,3.838937759E0,-1.111855030E0,6.676576344E0
5.227972194E0,-5.987792015E0,4.313820839E0,-1.751620054E0,7.584911091E0
5.232999798E0,-6.374445915E0,4.526305199E0,-2.027629852E0,8.076650438E0
5.238027402E0,-6.433018684E0,4.352689743E0,-1.951619267E0,8.008648772E0
5.243055007E0,-6.154565811E0,3.960861206E0,-1.357237697E0,7.443735351E0
5.248023392E0,-5.696102142E0,3.527745247E0,-6.080251932E-1,6.727574658E0
5.253048600E0,-5.342557430E0,3.205681801E0,7.462501526E-3,6.230519352E0
5.258073809E0,-5.531796455E0,3.065898895E0,3.807228804E-1,6.336044347E0
5.263162715E0,-5.769583702E0,2.940496445E0,3.416991234E-1,6.484703056E0
5.268192142E0,-5.955160141E0,2.767507553E0,-6.271660328E-2,6.567112283E0
5.273171309E0,-6.102583408E0,2.427601814E0,-5.847158432E-1,6.593683905E0
5.278195736E0,-6.092230797E0,1.940170288E0,-9.518597126E-1,6.464176184E0
5.283237819E0,-6.062116623E0,1.334178925E0,-1.304559708E0,6.342804378E0
5.288264017E0,-6.111374378E0,8.249759674E-1,-1.510293484E0,6.349052571E0
5.293269902E0,-6.171676636E0,5.127239227E-1,-1.110290766E0,6.291678941E0
5.298294069E0,-6.136564255E0,2.438449860E-1,-1.753275990E-1,6.143909260E0
5.303318236E0,-5.760114670E0,-1.733922958E-1,2.585306168E-1,5.768520086E0
5.308296621E0,-4.805332661E0,-8.587265015E-1,6.005579233E-1,4.918262193E0
5.313317715E0,-3.340009451E0,-1.745318890E0,1.270961165E-1,3.770670309E0
5.318338809E0,-1.834352970E0,-2.684632778E0,-2.160664082E0,3.903917679E0
5.323359902E0,-3.526592851E-1,-3.551789284E0,-4.724561214E0,5.921237570E0
5.328380996E0,1.230173826E0,-4.240950584E0,-6.216156483E0,7.624932191E0
5.333483132E0,2.289011240E0,-4.603540421E0,-6.399619102E0,8.208975668E0
5.338507454E0,3.001837969E0,-4.495573044E0,-5.555608273E0,7.751515430E0
5.343543340E0,3.580276251E0,-3.902711868E0,-4.422345161E0,6.899759031E0
5.348568809E0,4.515217781E0,-2.968145370E0,-3.365030289E0,6.365572040E0
5.353594277E0,5.543498516E0,-1.973469257E0,-2.126124859E0,6.256625578E0
5.358563913E0,6.056069851E0,-1.194974899E0,-7.843247652E-1,6.222468352E0
5.363585684E0,5.555471420E0,-2.959556580E-1,4.126874804E-1,5.578634547E0
5.368616257E0,3.818114758E0,9.068155289E-1,1.176338196E0,4.096838568E0
5.373638913E0,1.374092221E0,2.600753784E0,1.777177811E0,3.436627802E0
5.378661569E0,-1.812044740E0,4.934180260E0,2.115484238E0,5.666119883E0
5.383728548E0,-5.564814568E0,7.566846848E0,2.344331980E0,9.680920660E0
5.388754173E0,-8.592955589E0,1.034261703E1,1.983629346E0,1.359203437E1
5.393775944E0,-1.046493149E1,1.258417130E1,2.836981773E0,1.661097901E1
5.398801204E0,-1.190312767E1,1.437472630E1,3.812907934E0,1.904876561E1
5.403832871E0,-1.210929108E1,1.524171352E1,3.485515594E0,1.977608608E1
5.408858757E0,-1.015047741E1,1.444964123E1,7.027921677E-1,1.767252783E1
5.413884642E0,-6.159198284E0,1.250984955E1,-9.926111698E-1,1.397917509E1
5.418908704E0,-2.011530638E0,1.028043747E1,-1.156789064E0,1.053906120E1
5.423934434E0,1.180299878E0,7.897943497E0,-9.274168015E-1,8.039323429E0
5.428958652E0,2.447947741E0,5.967409134E0,-1.270337820E0,6.573901284E0
5.433984225E0,2.647101402E0,4.345570564E0,-1.340703726E0,5.261997325E0
5.439009798E0,2.280457973E0,2.859712601E0,-6.832542419E-1,3.720924762E0
5.444020736E0,1.615428686E0,1.476340294E0,7.324717045E-1,2.307748968E0
5.449045319E0,9.719125032E-1,1.480884552E-1,2.842506886E0,3.007721646E0
5.454069902E0,1.636834145E-1,-7.750339508E-1,5.348474503E0,5.406815087E0
5.459094486E0,-3.013081551E-1,-1.574976444E0,7.682802677E0,7.848362529E0
5.464145527E0,-1.971266270E-1,-2.361371517E0,9.224110603E0,9.523610175E0
5.469171465E0,1.826024055E-2,-3.052474022E0,1.027420998E1,1.071808386E1
5.474197611E0,3.797097206E-1,-3.686407089E0,1.078974152E1,1.140843104E1
5.479223548E0,8.644858599E-1,-4.186543465E0,1.109072781E1,1.188607274E1
5.484246100E0,1.315806150E0,-4.638781071E0,1.122517300E1,1.221696134E1
5.489271725E0,1.906520724E0,-5.018949986E0,1.125116825E1,1.246649378E1
5.494301777E0,2.493603230E0,-5.326837063E0,1.125541592E1,1.269951328E1
5.499327819E0,3.111269712E0,-5.504729748E0,1.142057800E1,1.305418135E1
5.504353861E0,3.631659985E0,-5.647936821E0,1.152706051E1,1.334021246E1
5.509379902E0,3.989055157E0,-5.650825500E0,1.135567856E1,1.329645913E1
5.514368027E0,4.087905884E0,-5.518134594E0,1.100847435E1,1.297487154E1
5.519392194E0,3.932515383E0,-5.230823040E0,1.022904587E1,1.214329306E1
5.524416361E0,3.511968136E0,-4.736472607E0,9.422210693E0,1.111513146E1
5.529476934E0,3.054178238E0,-4.121737480E0,8.622944832E0,1.003353886E1
5.534503496E0,2.690894127E0,-3.526005745E0,7.817477226E0,8.988135396E0
5.539527715E0,2.525894880E0,-2.887565613E0,7.158385277E0,8.121616827E0
5.544554069E0,2.419752121E0,-2.312105656E0,6.471861839E0,7.286015959E0
5.549580423E0,2.252674818E0,-1.809454441E0,5.617639542E0,6.317162593E0
5.554606777E0,2.187176228E0,-1.408517361E0,4.781042576E0,5.442979801E0
5.559639173E0,2.294278622E0,-1.052069664E0,4.171716690E0,4.875836863E0
5.564665788E0,2.397245407E0,-7.640047073E-1,3.434559584E0,4.257544864E0
5.569704382E0,2.353183746E0,-4.820365906E-1,2.827185154E0,3.709825995E0
5.574732246E0,2.282151461E0,-2.158041000E-1,2.195435047E0,3.174070217E0
5.579760111E0,2.231830835E0,-4.188251495E-2,1.711270809E0,2.812698136E0
5.584787975E0,2.159417629E0,7.808876038E-2,1.216152787E0,2.479558419E0
5.589792923E0,2.060405731E0,2.206668854E-1,6.616882086E-1,2.175269394E0
5.594819642E0,1.948866606E0,3.283472061E-1,4.973556995E-1,2.037953784E0
5.599846882E0,1.968662977E0,4.921178818E-1,3.685393333E-1,2.062434282E0
5.604873652E0,1.905025482E0,6.259469986E-1,2.270574570E-1,2.018040342E0
5.609897350E0,1.806272030E0,8.495759964E-1,3.121404648E-1,2.020353853E0
5.614923809E0,1.868758917E0,9.622297287E-1,2.940945625E-1,2.122413144E0
5.619950267E0,1.925667763E0,1.083916664E0,2.978796959E-1,2.229754242E0
5.624976725E0,1.796092510E0,1.138355255E0,1.371665001E-1,2.130872038E0
5.630000475E0,1.710114479E0,1.096956253E0,-1.641770601E-1,2.038322511E0
5.635026777E0,1.361717105E0,1.002754211E0,-6.928306818E-1,1.827513019E0
5.640040475E0,1.920026541E-1,1.037222862E0,-2.579188585E0,2.786558818E0
5.645065475E0,-6.420907974E-1,7.973260880E-1,-3.372590542E0,3.524539182E0
5.650090475E0,-4.295376539E-1,1.919631958E-1,-2.694053650E0,2.734826783E0
5.655128913E0,1.552280188E-1,-3.521051407E-1,-1.127496481E0,1.191353047E0
5.660154798E0,1.113962650E0,-9.531955719E-1,4.068846703E-1,1.521528744E0
5.665180684E0,1.798109770E0,-1.174774170E0,2.152387142E0,3.040734040E0
5.670206569E0,2.076197386E0,-1.169331551E0,3.352114201E0,4.112736495E0
5.675202611E0,2.011751175E0,-8.265790939E-1,4.693853855E0,5.173262008E0
5.680227038E0,1.867684722E0,-2.568798065E-1,5.820696354E0,6.118393539E0
5.685251465E0,2.164339542E0,2.765245438E-1,6.625679970E0,6.975705451E0
5.690275892E0,2.522843838E0,7.258977890E-1,7.144642353E0,7.611674125E0
5.695300319E0,3.139490604E0,1.134246826E0,7.386995316E0,8.106208541E0
5.700345319E0,3.454826593E0,1.673517227E0,7.489811897E0,8.416279995E0
5.705370579E0,4.043292522E0,1.993978500E0,7.387846470E0,8.654735128E0
5.710384486E0,4.598250389E0,2.401524544E0,7.480095387E0,9.102914575E0
5.715408600E0,4.985826969E0,2.790594101E0,7.458398342E0,9.395402697E0
5.720432715E0,5.435080051E0,2.998197556E0,7.220294952E0,9.521656523E0
5.725498809E0,5.657875538E0,3.019225121E0,7.016809464E0,9.505939774E0
5.730525736E0,5.887749672E0,2.948780060E0,6.934389114E0,9.562774306E0
5.735544382E0,5.909278393E0,2.728997231E0,6.724487782E0,9.358724963E0
5.740570475E0,5.788336754E0,2.608075142E0,6.521848202E0,9.101725237E0
5.745601465E0,5.231729984E0,2.585285187E0,5.394493580E0,7.947028319E0
5.750628027E0,4.781456947E0,2.425588608E0,3.829380035E0,6.588623687E0
5.755653704E0,5.059316635E0,2.162379265E0,3.081078053E0,6.305998007E0
5.760680215E0,5.464296341E0,2.140605927E0,3.266344547E0,6.716378111E0
5.765706152E0,6.263027668E0,1.939886093E0,3.574207067E0,7.467504924E0
5.770732559E0,7.082763195E0,1.580739975E0,4.243470192E0,8.406623140E0
5.775758965E0,7.800765991E0,1.270196915E0,4.954357147E0,9.327968964E0
5.780788757E0,8.061285973E0,1.257957458E0,5.212038994E0,9.681535982E0
5.785815423E0,7.910658836E0,1.658970833E0,5.258855343E0,9.642938710E0
5.790842090E0,7.341775894E0,2.434383392E0,4.698518276E0,9.050081203E0
5.795868757E0,6.361677170E0,3.535544395E0,3.090479851E0,7.907090255E0
5.800895423E0,4.279100895E0,6.056772232E0,-9.203099251E0,1.181914676E1
5.805949798E0,-1.783828378E0,9.890351295E0,-2.402087975E1,2.603850526E1
5.810977559E0,-5.618215561E0,9.232410431E0,-1.460559654E1,1.816934778E1
5.816005319E0,-9.248155594E0,8.267537117E0,-9.953916550E0,1.590474792E1
5.821036621E0,-1.144437313E1,7.201209068E0,-6.463077068E0,1.498674259E1
5.826064590E0,-1.263546467E1,5.449686050E0,-5.847441196E0,1.495147531E1
5.831092559E0,-1.221443844E1,3.296170235E0,-5.148944378E0,1.365902166E1
5.836120527E0,-1.102405071E1,1.320857048E0,-4.608321667E0,1.202127223E1
5.841070579E0,-8.853326797E0,-4.844970703E-1,-2.748731852E0,9.282869146E0
5.846094642E0,-6.418329239E0,-1.956692219E0,-2.526938915E-3,6.709962820E0
5.851111829E0,-4.404335976E0,-2.918035984E0,1.974540591E0,5.640205664E0
5.856135215E0,-2.456969023E0,-3.550598145E0,3.725826740E0,5.703089414E0
5.861158600E0,-1.083951354E0,-3.988771439E0,4.540342331E0,6.140029040E0
5.866190527E0,-1.627060175E-1,-4.113611221E0,4.944794178E0,6.434225671E0
5.871214486E0,2.661298811E-1,-4.093317986E0,4.936926842E0,6.418669947E0
5.876238444E0,1.223360896E-1,-3.961991310E0,4.780834198E0,6.210371719E0
5.881271361E0,-7.328389883E-1,-3.715360641E0,4.562217712E0,5.929147336E0
5.886295892E0,-1.865117073E0,-3.449485779E0,4.136531353E0,5.699868899E0
5.891319329E0,-2.813109398E0,-3.126287460E0,3.598283291E0,5.534880343E0
5.896343757E0,-3.871050119E0,-2.693241596E0,3.184736252E0,5.690441487E0
5.901368184E0,-4.682266712E0,-2.155225277E0,2.740883827E0,5.837898741E0
5.906400267E0,-4.923480034E0,-1.689249516E0,1.968907237E0,5.565142880E0
5.911425215E0,-4.403818607E0,-1.338162422E0,1.488942742E0,4.837483590E0
5.916450163E0,-3.265866518E0,-1.149601936E0,9.879603386E-1,3.600490849E0
5.921473548E0,-2.181574106E0,-1.238200188E0,5.744631290E-1,2.573404976E0
5.926498392E0,-1.190809011E0,-1.374189377E0,6.008113623E-1,1.915044866E0
5.931528392E0,-1.022859812E0,-1.438155174E0,1.185788870E0,2.126176790E0
5.936553757E0,-1.365130067E0,-1.554731369E0,2.057080030E0,2.917592840E0
5.941579121E0,-1.668028355E0,-1.704818249E0,2.488379478E0,3.446847296E0
5.946604486E0,-1.961600065E0,-1.792733669E0,2.954121590E0,3.973487535E0
5.951639329E0,-2.261650801E0,-1.794612408E0,3.229891300E0,4.332192961E0
5.956665163E0,-2.594057083E0,-1.724830151E0,3.512382746E0,4.694784740E0
5.961690996E0,-2.955655813E0,-1.454277992E0,3.816250086E0,5.041288574E0
5.966710736E0,-3.176047087E0,-1.126599312E0,3.945684910E0,5.188923830E0
5.971736152E0,-3.146996498E0,-8.661346436E-1,3.924929380E0,5.104786658E0
5.976761569E0,-2.893477440E0,-6.488533020E-1,3.668214798E0,4.716886908E0
5.981788079E0,-2.569008350E0,-4.268522263E-1,3.438750505E0,4.313584561E0
5.986813548E0,-2.077788353E0,-3.244762421E-1,3.073940039E0,3.724459240E0
5.991839017E0,-1.558085799E0,-2.315893173E-1,2.640880585E0,3.074982152E0
5.996865840E0,-1.267320514E0,-1.577587128E-1,2.345376968E0,2.670539687E0
6.001891413E0,-1.027940273E0,-1.209449768E-2,2.048720837E0,2.292174633E0
6.006916986E0,-6.914713383E-1,8.571052551E-2,1.632051468E0,1.774562171E0
6.011942559E0,-7.502384186E-1,1.548185349E-1,1.296749592E0,1.506116187E0
6.017004746E0,-6.108607054E-1,2.239408493E-1,7.513908744E-1,9.939258280E-1
6.022032090E0,-5.992689729E-1,2.930479050E-1,2.215468884E-1,7.029106630E-1
6.027052663E0,-5.432715416E-1,3.574151993E-1,-2.694164515E-1,7.038997208E-1
6.032079277E0,-4.958778620E-1,5.079746246E-1,-7.985294461E-1,1.068448571E0
6.037105892E0,-7.493014336E-1,6.155805588E-1,-1.395133495E0,1.699055482E0
6.042148600E0,-1.041072607E0,8.382492065E-1,-2.146326780E0,2.528480285E0
6.047176309E0,-1.315163851E0,1.022991180E0,-2.780762672E0,3.241729160E0
6.052204017E0,-1.596899033E0,1.227434158E0,-2.907758236E0,3.537193675E0
6.057213652E0,-1.987708926E0,1.418080330E0,-2.671003819E0,3.618867226E0
6.062240163E0,-1.976472378E0,1.446581841E0,-2.351789236E0,3.395578698E0
6.067266673E0,-1.563763022E0,1.308136940E0,-1.828667641E0,2.738722765E0
6.072291309E0,-9.113275409E-1,1.079169273E0,-1.635175109E0,2.160768809E0
6.077317663E0,-2.517934740E-1,8.121519089E-1,-1.582811236E0,1.796742076E0
6.082344017E0,1.391882449E-1,5.882873535E-1,-1.551124573E0,1.664765094E0
6.087370371E0,3.684101105E-1,4.312973022E-1,-1.405628800E0,1.515762414E0
6.092375944E0,4.368194640E-1,2.691974640E-1,-1.246173620E0,1.347674742E0
6.097401257E0,3.587301970E-1,1.832647324E-1,-1.044222951E0,1.119229596E0
6.102445111E0,2.630576193E-1,1.553249359E-2,-7.184592485E-1,7.652609106E-1
6.107472246E0,1.586994082E-1,-6.178092957E-2,-3.359117508E-1,3.766153074E-1
6.112499382E0,7.861151546E-2,-1.348419189E-1,8.861613274E-2,1.794851873E-1
6.117503861E0,-3.019335307E-2,-2.324142456E-1,5.696548223E-1,6.159826595E-1
6.122529486E0,-1.250195056E-1,-3.544597626E-1,1.068682671E0,1.132852263E0
6.127555111E0,-2.971477807E-1,-4.722871780E-1,1.547530413E0,1.645053908E0
6.132580736E0,-4.368160665E-1,-5.810976028E-1,2.039482117E0,2.165172050E0
6.137627246E0,-6.353059411E-1,-6.808986664E-1,2.558798075E0,2.722991777E0
6.142653913E0,-6.727906466E-1,-7.525959015E-1,3.057742119E0,3.220067501E0
6.147680579E0,-6.500729322E-1,-8.199911118E-1,3.631145477E0,3.778914886E0
6.152707246E0,-5.915609598E-1,-7.825021744E-1,4.062806129E0,4.179551132E0
6.157712819E0,-4.351669848E-1,-7.166280746E-1,4.189456940E0,4.272525664E0
6.162738392E0,-3.192609549E-1,-7.227201462E-1,4.226058483E0,4.299281599E0
6.167755944E0,-2.767789364E-1,-6.474800110E-1,4.042613506E0,4.103481559E0
6.172780736E0,-2.117775530E-1,-5.865087509E-1,3.657664061E0,3.710437795E0
6.177823236E0,-3.054503798E-1,-4.726572037E-1,3.261674404E0,3.309867775E0
6.182849798E0,-4.760073423E-1,-3.775873184E-1,2.863361835E0,2.927113967E0
6.187876361E0,-6.995591521E-1,-2.438039780E-1,2.376132011E0,2.488940884E0
6.192902923E0,-8.037904501E-1,-1.717472076E-1,1.799845457E0,1.978640912E0
6.197918288E0,-9.317933917E-1,-8.967685699E-2,1.340702415E0,1.635164771E0
6.202944277E0,-1.140305161E0,-1.205158234E-2,7.408758402E-1,1.359903714E0
6.207961517E0,-1.495642662E0,8.978176117E-2,2.542562485E-1,1.519754578E0
6.212986621E0,-1.864087462E0,1.823129654E-1,-2.244497538E-1,1.886382193E0
6.218011725E0,-2.145813465E0,3.278026581E-1,-5.330439806E-1,2.235197060E0
6.223036829E0,-2.365725040E0,3.827505112E-1,-7.196542025E-1,2.502210042E0
6.228058132E0,-2.529320002E0,3.568735123E-1,-8.132002354E-1,2.680692634E0
6.233083027E0,-2.483680725E0,3.363170624E-1,-7.895565033E-1,2.627770649E0
6.238107923E0,-2.372335911E0,2.922620773E-1,-6.385315657E-1,2.474089197E0
6.243132819E0,-2.300135612E0,2.198209763E-1,-3.594775200E-1,2.338411680E0
6.248157715E0,-2.257143497E0,1.618442535E-1,-6.607067585E-2,2.263902751E0
6.253199642E0,-2.233503819E0,1.180877686E-1,2.859025002E-1,2.254822447E0
6.258225215E0,-2.195739031E0,7.396507263E-2,6.162198782E-1,2.281768538E0
6.263250788E0,-2.086447716E0,5.323314667E-2,8.347851038E-1,2.247879892E0
6.268328600E0,-1.991906404E0,3.185081482E-2,1.090442896E0,2.271072722E0
6.273357663E0,-1.978774309E0,-5.248546600E-2,1.302443743E0,2.369527842E0
6.278358548E0,-1.946631432E0,-6.102943420E-2,1.461344719E0,2.434877186E0
6.283384798E0,-1.996339083E0,-7.041168213E-2,1.505182147E0,2.501179888E0
6.288411048E0,-2.051214457E0,-9.493064880E-2,1.601253867E0,2.603940576E0
6.293461829E0,-2.235942602E0,-5.318737030E-2,1.548332453E0,2.720220874E0
6.298489694E0,-2.402117729E0,2.610778809E-2,1.413301110E0,2.787161859E0
6.303530059E0,-2.636310577E0,7.609176636E-2,1.133572221E0,2.870698416E0
6.308559225E0,-2.804454088E0,1.735219955E-1,7.657378912E-1,2.912288985E0
6.313588392E0,-3.059702873E0,3.136968613E-1,2.997193336E-1,3.090310514E0
6.318604225E0,-3.339532375E0,5.015316010E-1,-7.882654667E-2,3.377902316E0
6.323632454E0,-3.596155882E0,6.079626083E-1,-4.327794313E-1,3.672771936E0
6.328660684E0,-3.805579185E0,7.144966125E-1,-7.053467035E-1,3.935791193E0
6.333688913E0,-4.097001076E0,8.642635345E-1,-8.779948950E-1,4.278229109E0
6.338649642E0,-4.345433712E0,1.009484291E0,-9.946572185E-1,4.570688751E0
6.343674538E0,-4.623421669E0,1.250575066E0,-1.064626694E0,4.906464707E0
6.348699434E0,-4.896990776E0,1.549163818E0,-1.040359735E0,5.240493829E0
6.353763340E0,-5.094594955E0,1.895578384E0,-8.499602675E-1,5.501867649E0
6.358790892E0,-5.344738007E0,2.174920082E0,-6.609631777E-1,5.808043909E0
6.363797611E0,-5.455813408E0,2.358410835E0,-3.815836906E-1,5.955972441E0
6.368823027E0,-5.437553406E0,2.412541389E0,-2.166345119E-1,5.952669444E0
6.373848444E0,-5.394534111E0,2.375580788E0,-3.146052361E-2,5.894520516E0
6.378894121E0,-5.345283508E0,2.343161583E0,1.648819447E-1,5.838634091E0
6.383920892E0,-5.293658257E0,2.099920273E0,2.102651596E-1,5.698832716E0
6.388947663E0,-5.234687328E0,1.736886978E0,2.680432796E-1,5.521827143E0
6.393974434E0,-5.091507912E0,1.234996796E0,3.003311157E-1,5.247748915E0
6.398957194E0,-4.916323662E0,7.521915436E-1,3.647487164E-1,4.986890022E0
6.403981725E0,-4.666002274E0,2.883138657E-1,3.809632063E-1,4.690398178E0
6.409003184E0,-4.378282547E0,-8.021068573E-2,3.255555630E-1,4.391102167E0
6.414027402E0,-4.076286793E0,-3.105401993E-1,2.660737038E-1,4.096748033E0
6.419051621E0,-3.850000620E0,-4.794178009E-1,1.647002697E-1,3.883229633E0
6.424110527E0,-3.621718884E0,-6.013441086E-1,3.662800789E-2,3.671485261E0
6.429137090E0,-3.457662106E0,-6.809940338E-1,-1.474940777E-1,3.527170908E0
6.434162402E0,-3.280399799E0,-7.422513962E-1,-5.117125511E-1,3.402030234E0
6.439188809E0,-3.175090313E0,-8.327960968E-1,-7.642726302E-1,3.370290861E0
6.444215215E0,-3.174681187E0,-8.805532455E-1,-1.221789837E0,3.513793543E0
6.449213652E0,-3.308105230E0,-8.947229385E-1,-1.646340847E0,3.801911037E0
6.454238236E0,-3.422157288E0,-9.133062363E-1,-1.995246649E0,4.065254970E0
6.459262819E0,-3.517910957E0,-9.501934052E-1,-2.265642881E0,4.290886001E0
6.464285996E0,-3.635032415E0,-9.906377792E-1,-2.368336678E0,4.450150839E0
6.469310475E0,-3.774773121E0,-9.626331329E-1,-2.323838711E0,4.536055667E0
6.474334954E0,-3.790422916E0,-9.091272354E-1,-2.080460787E0,4.418386052E0
6.479368392E0,-3.845846415E0,-7.726879120E-1,-1.628740311E0,4.247396409E0
6.484393444E0,-3.794242859E0,-5.199031830E-1,-1.121702790E0,3.990588345E0
6.489418496E0,-3.712967157E0,-1.700506210E-1,-4.440218210E-1,3.743287019E0
6.494441829E0,-3.511886597E0,3.054323196E-1,2.371263504E-1,3.533109859E0
6.499466777E0,-3.449978352E0,1.073753357E0,1.080244303E0,3.771236488E0
6.504495163E0,-3.350534916E0,1.890632629E0,2.004519939E0,4.338049809E0
6.509520475E0,-3.243069410E0,2.689036369E0,2.972457409E0,5.155959546E0
6.514545788E0,-3.137670040E0,3.473762512E0,3.960839272E0,6.131904028E0
6.519571100E0,-2.939528942E0,4.139573097E0,4.998695374E0,7.124875526E0
6.524632871E0,-2.696630001E0,4.724935532E0,6.139862537E0,8.203337194E0
6.529660007E0,-2.515967369E0,5.134074211E0,6.961927891E0,9.008731862E0
6.534683027E0,-2.325652122E0,5.362388611E0,7.694853306E0,9.663055252E0
6.539709746E0,-2.054145813E0,5.400426865E0,7.965115070E0,9.840080458E0
6.544736465E0,-1.615785718E0,5.095177650E0,7.838938713E0,9.487916469E0
6.549763184E0,-1.254526496E0,4.547248840E0,7.496750832E0,8.857346204E0
6.554790736E0,-8.930778503E-1,4.048418045E0,7.128258228E0,8.246171359E0
6.559817454E0,-7.028162479E-1,3.736996651E0,6.980089664E0,7.948631729E0
6.564840059E0,-3.576563597E-1,3.272797585E0,7.308001995E0,8.015361206E0
6.569866361E0,3.302541971E-1,2.727544785E0,7.081853867E0,7.596132080E0
6.574889590E0,7.502872944E-1,2.220732689E0,6.601993084E0,7.005776001E0
6.579915579E0,1.109907985E0,1.756912231E0,6.202060699E0,6.540962715E0
6.584945007E0,1.491395950E0,1.307260513E0,6.063260078E0,6.379366325E0
6.589971309E0,1.890970469E0,8.909664154E-1,5.726181030E0,6.095796885E0
6.594998496E0,2.113500834E0,6.468486786E-1,5.420825958E0,5.854114199E0
6.600024902E0,2.188392401E0,5.701532364E-1,5.578256607E0,6.019226095E0
6.605048079E0,2.455515385E0,4.791555405E-1,5.772795200E0,6.291606334E0
6.610074173E0,2.747403145E0,3.263502121E-1,5.737292290E0,6.369556603E0
6.615101413E0,2.958967924E0,1.983938217E-1,5.698438644E0,6.423943825E0
6.620127611E0,3.056463718E0,5.260562897E-2,5.681690216E0,6.451847916E0
6.625156100E0,3.072845936E0,-1.203002930E-1,5.635513783E0,6.419958715E0
6.630182507E0,3.098140240E0,-3.105773926E-1,5.446150780E0,6.273395379E0
6.635208913E0,3.055211544E0,-4.128599167E-1,5.171719074E0,6.020917627E0
6.640235319E0,2.866822004E0,-4.894161224E-1,4.903488636E0,5.701087383E0
6.645277871E0,2.804865360E0,-5.738554001E-1,4.555222988E0,5.380207819E0
6.650305059E0,2.762403011E0,-5.851449966E-1,4.141691685E0,5.012671451E0
6.655332246E0,2.500094175E0,-6.620960236E-1,3.222583532E0,4.132055984E0
6.660332663E0,2.294827461E0,-7.238683701E-1,2.421782732E0,3.413978631E0
6.665358027E0,2.644400120E0,-8.565130234E-1,1.402185321E0,3.113292506E0
6.670383392E0,3.153961658E0,-9.547634125E-1,-3.480306864E-1,3.313634361E0
6.675381048E0,3.596961260E0,-1.152671337E0,-2.345032215E0,4.445892217E0
6.680404590E0,3.864161968E0,-1.239433765E0,-4.142100334E0,5.798701489E0
6.685431777E0,3.992462397E0,-1.239593029E0,-5.415771961E0,6.841559238E0
6.690455684E0,4.148216248E0,-1.273324490E0,-5.761885643E0,7.213070044E0
6.695479590E0,4.272871971E0,-1.212084293E0,-5.384902000E0,6.980240166E0
6.700503496E0,4.456669331E0,-1.190430164E0,-4.872348309E0,6.709605319E0
6.705566465E0,4.714046478E0,-1.313834667E0,-3.942750931E0,6.284399783E0
6.710592350E0,4.905671120E0,-1.357923985E0,-2.942005873E0,5.879197670E0
6.715618236E0,4.880013943E0,-1.513835430E0,-2.063622475E0,5.510423896E0
6.720649121E0,4.671342373E0,-1.642771244E0,-1.194383740E0,5.093789301E0
6.725675319E0,4.437343597E0,-1.692541599E0,-5.463606119E-1,4.780504700E0
6.730701517E0,4.211223602E0,-1.768785000E0,-8.241856098E-2,4.568347340E0
6.735722663E0,4.164907455E0,-1.910030842E0,2.438444495E-1,4.588478184E0
6.740748496E0,4.174137115E0,-2.025344849E0,3.740347326E-1,4.654604644E0
6.745759590E0,4.210498333E0,-2.133818626E0,3.748233914E-1,4.735184338E0
6.750784017E0,4.336947441E0,-2.220827103E0,5.182000399E-1,4.899971164E0
6.755808444E0,4.410651684E0,-2.357850075E0,7.507444620E-1,5.057363196E0
6.760832871E0,4.418216705E0,-2.439267159E0,8.993539810E-1,5.126353549E0
6.765845788E0,4.364927769E0,-2.541511536E0,8.774919510E-1,5.126584383E0
6.770869590E0,4.332623005E0,-2.606963158E0,7.568733692E-1,5.112801219E0
6.775898600E0,4.221018791E0,-2.554267883E0,4.707722068E-1,4.956098317E0
6.780922923E0,4.083150387E0,-2.502920151E0,7.271653414E-2,4.789782256E0
6.785947246E0,3.823495865E0,-2.318900108E0,-3.455112576E-1,4.485063697E0
6.790971569E0,3.499478817E0,-2.126701355E0,-6.060888767E-1,4.139632154E0
6.796020892E0,3.173312187E0,-1.921437740E0,-9.799146056E-1,3.836934435E0
6.801046465E0,2.778374195E0,-1.803225994E0,-1.521338344E0,3.644922154E0
6.806072038E0,2.448999405E0,-1.699876308E0,-2.437444925E0,3.850755161E0
6.811081986E0,1.789256573E0,-1.577200413E0,-4.351132393E0,4.961990863E0
6.816106517E0,7.619781494E-1,-1.348824978E0,-6.171391010E0,6.362861504E0
6.821135371E0,-6.030800343E-1,-1.014740467E0,-7.523620129E0,7.615659104E0
6.826160371E0,-2.199725389E0,-6.228237152E-1,-8.411654472E0,8.716801715E0
6.831185371E0,-4.127376080E0,-9.660053253E-2,-9.165493011E0,1.005240405E1
6.836210371E0,-6.165142536E0,6.926250458E-1,-9.274365425E0,1.115807179E1
6.841235371E0,-8.068056107E0,1.600905418E0,-7.946070194E0,1.143662796E1
6.846311673E0,-9.790629387E0,2.691118240E0,-4.835558414E0,1.124638459E1
6.851338704E0,-1.122573757E1,3.586448669E0,-8.595561385E-1,1.181603296E1
6.856365736E0,-1.197922039E1,3.973233223E0,2.869522572E0,1.294304691E1
6.861375788E0,-1.178224277E1,3.604881287E0,5.775248051E0,1.360771487E1
6.866401673E0,-1.165742874E1,2.981035233E0,7.173710823E0,1.400872381E1
6.871426309E0,-9.823749542E0,2.277922630E0,6.000950336E0,1.173483666E1
6.876452090E0,-6.917648315E0,1.047414780E0,3.373485804E0,7.767325306E0
6.881477507E0,-4.731965542E0,1.207971573E-1,1.050058246E0,4.848578365E0
6.886503236E0,-3.256415367E0,-5.551986694E-1,-6.664830446E-1,3.369968287E0
6.891528965E0,-2.070201397E0,-1.057910442E0,-1.332827806E0,2.679801912E0
6.896554694E0,-1.283861637E0,-1.450225353E0,-1.180292010E0,2.268158616E0
6.901547819E0,-7.499408722E-1,-1.814408779E0,-9.670709372E-1,2.188542147E0
6.906571934E0,-2.294793129E-1,-2.165150642E0,-6.166383624E-1,2.262914256E0
6.911599902E0,1.568512917E-1,-2.412248611E0,-1.529364586E-1,2.422175727E0
6.916624382E0,6.661593914E-1,-2.523168564E0,-3.077423573E-2,2.609807462E0
6.921648861E0,1.651299953E0,-2.503565788E0,-2.367416024E-1,3.008434772E0
6.926673340E0,2.777884483E0,-2.052008629E0,-5.420825481E-1,3.495888314E0
6.931707819E0,3.855924129E0,-8.096270561E-1,-1.909845471E-1,3.944632044E0
6.936732819E0,4.486061573E0,1.147330284E0,5.102884769E-1,4.658487904E0
6.941757819E0,4.269286156E0,3.771244049E0,1.412473202E0,5.868915275E0
6.946808704E0,3.632997513E0,6.372759819E0,2.235364676E0,7.668610948E0
6.951835423E0,3.055181503E0,8.559144020E0,2.503209591E0,9.426512538E0
6.956862663E0,2.912518978E0,9.837506294E0,1.892676950E0,1.043271407E1
6.961889434E0,3.007818222E0,9.648907661E0,1.155904770E0,1.017273343E1
6.966919538E0,3.239242077E0,7.808299065E0,8.947691917E-1,8.500754991E0
6.971946673E0,3.284167290E0,5.412640572E0,2.926817536E-1,6.337830493E0
6.976976152E0,3.408581257E0,3.107953072E0,-1.519820929E0,4.856712276E0
6.982003496E0,4.194187641E0,1.276202202E0,-4.183525562E0,6.059850506E0
6.987030840E0,5.138107777E0,-4.013442993E-2,-6.540627956E0,8.317546294E0
6.992054225E0,5.786759853E0,-5.687222481E-1,-7.331503868E0,9.357402608E0
6.997081309E0,5.964224815E0,-5.159425735E-1,-6.164939404E0,8.593291118E0
7.002108392E0,5.398710251E0,3.143119812E-2,-3.570283651E0,6.472556345E0
7.007129017E0,4.784492016E0,8.000936508E-1,-1.034133315E0,4.959934013E0
7.012155684E0,4.264370918E0,1.674646378E0,8.580316305E-1,4.661064052E0
7.017182350E0,3.852369070E0,2.587995529E0,2.009435654E0,5.057301648E0
7.022209017E0,3.629961014E0,3.401701927E0,2.682355881E0,5.651833865E0
7.027203809E0,3.530878544E0,4.092583656E0,2.985743284E0,6.175030950E0
7.032228861E0,3.544977903E0,4.555534363E0,2.832698822E0,6.429925682E0
7.037253913E0,3.730561495E0,4.925374985E0,2.484529018E0,6.659526428E0
7.042278965E0,4.040541649E0,5.092749596E0,2.144771099E0,6.845591160E0
7.047308496E0,4.236929417E0,5.063323975E0,1.821034789E0,6.848721651E0
7.052333757E0,4.311804771E0,4.771082878E0,1.474147081E0,6.597575451E0
7.057359850E0,4.184758186E0,4.221471786E0,1.041917682E0,6.034783971E0
7.062385215E0,3.884975910E0,3.400588036E0,5.153669715E-1,5.188703106E0
7.067410319E0,3.513059616E0,2.409217834E0,-5.194377899E-2,4.260119317E0
7.072435632E0,2.977682114E0,1.472190857E0,-5.919328332E-1,3.374065970E0
7.077460944E0,2.402548075E0,5.461511612E-1,-1.055822134E0,2.680537021E0
7.082486257E0,1.844742060E0,-3.546180725E-1,-1.381073952E0,2.331564390E0
7.087510996E0,1.366510987E0,-1.134402275E0,-1.491392732E0,2.319153527E0
7.092536257E0,7.672781944E-1,-1.802772999E0,-1.302062154E0,2.352460874E0
7.097561517E0,-5.279135704E-2,-2.331049442E0,-8.247632980E-1,2.473219143E0
7.102602975E0,-8.926451206E-1,-2.681201935E0,-2.337577939E-1,2.835542599E0
7.107629329E0,-1.770463467E0,-2.924941063E0,3.776543736E-1,3.439831963E0
7.112643288E0,-2.460583448E0,-3.028740883E0,1.039678335E0,4.038399842E0
7.117668392E0,-2.656522274E0,-3.045247078E0,1.924685240E0,4.476053354E0
7.122693496E0,-2.428605318E0,-2.978671074E0,2.829256773E0,4.772347331E0
7.127718600E0,-2.062112570E0,-2.880898476E0,4.260524750E0,5.541114998E0
7.132780684E0,-1.379115105E0,-2.727460861E0,5.679371834E0,6.449516699E0
7.137807663E0,-8.597822189E-1,-2.450479984E0,6.959187508E0,7.427945098E0
7.142834642E0,-4.844460487E-1,-2.184051037E0,8.135415077E0,8.437401578E0
7.147858704E0,-4.872837067E-1,-1.770746708E0,8.803914070E0,8.993436066E0
7.152885475E0,-7.015048265E-1,-1.374214172E0,8.880159378E0,9.013201662E0
7.157912246E0,-9.184868336E-1,-9.524822235E-1,8.415908813E0,8.519293492E0
7.162939694E0,-1.360369921E0,-6.117382050E-1,7.350187302E0,7.500005555E0
7.167966517E0,-1.588880181E0,-2.139196396E-1,6.051315308E0,6.260089360E0
7.172993340E0,-1.485985756E0,1.257438660E-1,4.833359718E0,5.058194476E0
7.178015996E0,-1.325011015E0,3.882026672E-1,3.707488060E0,3.956238519E0
7.183042507E0,-1.097116590E0,4.492807388E-1,2.559911728E0,2.821110783E0
7.188063965E0,-6.350293159E-1,3.955469131E-1,1.334578514E0,1.529973661E0
7.193089954E0,9.458291531E-2,1.461124420E-1,3.823454976E-1,4.200986231E-1
7.198115944E0,8.958582878E-1,-2.410926819E-1,-2.755602002E-1,9.677919079E-1
7.203141934E0,1.501975536E0,-5.599822998E-1,-6.498906016E-1,1.729701848E0
7.208135684E0,1.818498969E0,-8.487939835E-1,-8.215788007E-1,2.168497510E0
7.213160059E0,1.922395468E0,-9.784765244E-1,-8.333646059E-1,2.312469937E0
7.218184434E0,1.794997811E0,-9.540939331E-1,-7.368558049E-1,2.162237002E0
7.223208809E0,1.498038173E0,-7.808856964E-1,-5.116588473E-1,1.765133313E0
7.228275163E0,1.040056229E0,-6.171483994E-1,-1.332008839E-1,1.216688777E0
7.233301673E0,5.588229299E-1,-4.010400772E-1,1.750087738E-1,7.097494497E-1
7.238310215E0,3.064780235E-1,-3.146152496E-1,2.364246845E-1,4.988067418E-1
7.243334902E0,-2.893924713E-2,-4.220485687E-2,2.617483139E-1,2.667037866E-1
7.248359590E0,-2.471002340E-1,1.145982742E-1,2.986410856E-1,4.042001832E-1
7.253405632E0,-5.260314941E-1,4.045524597E-1,3.274781704E-1,7.400093091E-1
7.258431725E0,-9.475259781E-1,6.600894928E-1,3.479542732E-1,1.206066248E0
7.263457819E0,-1.335576177E0,8.811855316E-1,2.975369692E-1,1.627507270E0
7.268469225E0,-1.781710029E0,1.024881363E0,-2.981674671E-2,2.055665701E0
7.273494329E0,-1.894690633E0,9.239101410E-1,-5.099326968E-1,2.168753997E0
7.278519434E0,-1.784977436E0,7.317352295E-1,-9.418449402E-1,2.146777302E0
7.283544538E0,-1.480612278E0,4.821548462E-1,-1.311077356E0,2.035585873E0
7.288616100E0,-1.277253389E0,1.849527359E-1,-1.468760490E0,1.955208714E0
7.293643548E0,-9.233697653E-1,-2.265834808E-1,-1.810728908E0,2.045162823E0
7.298670996E0,-7.625954151E-1,-6.087055206E-1,-2.049893856E0,2.270272891E0
7.303664486E0,-7.212907672E-1,-8.608207703E-1,-2.267990589E0,2.530820832E0
7.308689642E0,-7.855188251E-1,-1.093053818E0,-2.226572037E0,2.601812735E0
7.313719694E0,-8.206749558E-1,-1.276649475E0,-2.179775953E0,2.656080660E0
7.318745319E0,-8.457428217E-1,-1.383012772E0,-2.199054718E0,2.732004191E0
7.323766986E0,-9.369009733E-1,-1.440931320E0,-2.284337997E0,2.858717648E0
7.328792194E0,-9.603501558E-1,-1.512562752E0,-2.407576561E0,3.001090368E0
7.333818913E0,-9.544141293E-1,-1.569149494E0,-2.569158554E0,3.158118450E0
7.338844277E0,-9.810533524E-1,-1.462367058E0,-2.630990505E0,3.165927057E0
7.343869642E0,-1.087808967E0,-1.369335175E0,-2.655710936E0,3.179812532E0
7.348895007E0,-1.264927149E0,-1.232615471E0,-2.638919830E0,3.175417998E0
7.353924798E0,-1.483781219E0,-1.042701721E0,-2.686017990E0,3.240914412E0
7.358950371E0,-1.729870677E0,-8.187990189E-1,-2.672614098E0,3.287210140E0
7.363975944E0,-2.075058937E0,-5.131254196E-1,-2.522389889E0,3.306299750E0
7.369038184E0,-2.529715061E0,-1.975059509E-1,-2.426876545E0,3.511153180E0
7.374066257E0,-2.978758335E0,1.518955231E-1,-2.275583744E0,3.751580313E0
7.379094329E0,-3.380238056E0,4.824657440E-1,-2.149900913E0,4.034954330E0
7.384122402E0,-3.691758156E0,7.942752838E-1,-2.188492775E0,4.364567806E0
7.389150475E0,-3.679403543E0,9.583663940E-1,-2.056958437E0,4.322910431E0
7.394119538E0,-3.643844128E0,9.844903946E-1,-1.932418942E0,4.240408510E0
7.399145215E0,-3.495468616E0,9.113826752E-1,-1.777781487E0,4.026093174E0
7.404171829E0,-3.405010223E0,8.156223297E-1,-1.554544330E0,3.830919273E0
7.409197611E0,-3.103994370E0,6.302566528E-1,-1.248267412E0,3.404434759E0
7.414223392E0,-2.859578133E0,3.457384109E-1,-9.926318526E-1,3.046644078E0
7.419277350E0,-2.532428741E0,1.390380859E-1,-6.198074818E-1,2.610878824E0
7.424305059E0,-2.264429092E0,-8.120822906E-2,-2.099500895E-1,2.275590677E0
7.429332767E0,-2.026390553E0,-2.530479431E-1,1.276246309E-1,2.046113384E0
7.434333600E0,-1.936938286E0,-3.242950439E-1,4.179050922E-1,2.007869982E0
7.439359486E0,-1.871961355E0,-2.712812424E-1,5.991048813E-1,1.984126883E0
7.444385371E0,-1.993886471E0,-1.278886795E-1,7.294371128E-1,2.126973736E0
7.449451725E0,-2.102505684E0,4.838275909E-2,8.424701691E-1,2.265530187E0
7.454480267E0,-2.259731293E0,2.906513214E-1,9.343769550E-1,2.462503604E0
7.459499746E0,-2.466114044E0,5.748691559E-1,1.019715309E0,2.729837420E0
7.464527402E0,-2.655135393E0,8.626508713E-1,1.098765850E0,3.000199473E0
7.469555059E0,-2.908185959E0,1.230336189E0,1.286821604E0,3.409865474E0
7.474582715E0,-3.167910576E0,1.624986649E0,1.421925545E0,3.833811586E0
7.479610371E0,-3.405817509E0,1.917240143E0,1.480957985E0,4.179550122E0
7.484566413E0,-3.659974337E0,2.231363297E0,1.469309330E0,4.531364498E0
7.489591152E0,-4.122476578E0,2.510061264E0,1.377292633E0,5.019178785E0
7.494615892E0,-4.654701710E0,2.825126648E0,1.319843054E0,5.602639938E0
7.499648861E0,-5.113865376E0,3.210055351E0,1.297071934E0,6.175635193E0
7.504674173E0,-5.692081928E0,3.774833679E0,1.309099913E0,6.954344582E0
7.509705319E0,-6.255704880E0,4.332716942E0,1.164964199E0,7.698273912E0
7.514731204E0,-6.775970936E0,4.792900085E0,7.021665573E-1,8.329388407E0
7.519748809E0,-7.262786388E0,5.318450928E0,5.395078659E-2,9.002049604E0
7.524773861E0,-7.410756588E0,5.627532959E0,-1.062716126E0,9.365778450E0
7.529804486E0,-7.062350273E0,5.682760239E0,-2.554145813E0,9.417760676E0
7.534830059E0,-6.571361542E0,5.489934921E0,-3.878281116E0,9.400172465E0
7.539855632E0,-6.199391365E0,5.001934052E0,-4.450185776E0,9.124469902E0
7.544881204E0,-5.929887772E0,4.242877007E0,-4.037531853E0,8.334700819E0
7.549906777E0,-5.540435791E0,3.255329132E0,-3.275762558E0,7.212781492E0
7.554955632E0,-5.312226295E0,2.038665771E0,-1.042883396E0,5.784765520E0
7.559982142E0,-4.969778061E0,6.112699509E-1,3.230292797E0,5.958786494E0
7.565017715E0,-4.811945438E0,-1.019563675E0,7.767418385E0,9.193863026E0
7.570045163E0,-3.820153236E0,-2.660793781E0,4.955347061E0,6.799180744E0
7.575072611E0,-2.812680006E0,-4.159565926E0,-2.616491556E0,5.662083147E0
7.580100059E0,-2.454525948E0,-4.924854755E0,-1.158343506E1,1.282399547E1
7.585090892E0,-2.646454334E0,-5.168449879E0,-1.457372379E1,1.568789406E1
7.590116465E0,-2.290419102E0,-5.343338490E0,-1.395219231E1,1.511492494E1
7.595138965E0,-1.302314997E0,-5.482066631E0,-1.224937153E1,1.348318144E1
7.600164225E0,-4.949939251E-1,-5.397943020E0,-1.050610542E1,1.182205815E1
7.605189486E0,6.030242443E-1,-5.205890179E0,-8.030447006E0,9.589213206E0
7.610214746E0,1.330342770E0,-4.657350063E0,-6.229481697E0,7.890954550E0
7.615240007E0,2.026483059E0,-3.943984985E0,-4.341567516E0,6.205711857E0
7.620285267E0,2.587100744E0,-2.817113400E0,-2.696471691E0,4.679762574E0
7.625311309E0,2.963341475E0,-1.181056023E0,-1.643767118E0,3.588628758E0
7.630355736E0,3.204535723E0,6.820859909E-1,-1.011655450E0,3.428955708E0
7.635383704E0,2.954906464E0,2.610449791E0,1.485663056E-1,3.945629515E0
7.640432507E0,1.511750698E0,4.059786797E0,1.073576093E0,4.463163075E0
7.645462559E0,-9.821479321E-1,5.777456284E0,1.960192204E0,6.179479682E0
7.650480579E0,-3.495088100E0,7.763226509E0,3.094795704E0,9.058757482E0
7.655509538E0,-5.527665615E0,9.470938683E0,4.035178661E0,1.168488055E1
7.660538496E0,-6.896476269E0,1.092821026E1,4.570876122E0,1.370693521E1
7.665567454E0,-7.314814568E0,1.190404320E1,4.663609505E0,1.472963035E1
7.670596413E0,-6.541449547E0,1.220599461E1,4.041599751E0,1.442606651E1
7.675625371E0,-4.920010090E0,1.209672356E1,2.896178484E0,1.337628760E1
7.680585163E0,-3.152768135E0,1.167104244E1,1.155525684E0,1.214448098E1
7.685611725E0,-4.661083221E-2,1.047105598E1,3.598145545E-1,1.047733995E1
7.690638288E0,2.034260035E0,9.157917023E0,-4.271482229E-1,9.390852660E0
7.695664850E0,3.106256962E0,7.808906555E0,-1.255669594E0,8.497326640E0
7.700709746E0,2.967394352E0,6.797161102E0,-1.519591451E0,7.570732228E0
7.705737194E0,2.310544968E0,6.063901901E0,-1.156991601E0,6.591521363E0
7.710769329E0,1.678853750E0,5.191843987E0,3.514230251E-2,5.456649968E0
7.715797246E0,1.466653705E0,4.290252686E0,1.728163838E0,4.852204803E0
7.720825163E0,1.476827025E0,3.387457848E0,3.516088486E0,5.100859435E0
7.725840475E0,1.537003875E0,2.464159966E0,5.088964462E0,5.859353594E0
7.730867559E0,1.877215624E0,1.434477806E0,6.118977547E0,6.559234048E0
7.735894642E0,2.420982361E0,4.469699860E-1,6.670701981E0,7.110499467E0
7.740910632E0,3.121031284E0,-6.991147995E-1,7.027206421E0,7.720830775E0
7.745936986E0,3.735055447E0,-1.620564938E0,7.111436844E0,8.194473985E0
7.750963340E0,4.604246140E0,-2.632902145E0,7.047440529E0,8.820298987E0
7.755989694E0,5.514916420E0,-3.415036201E0,6.930302143E0,9.492410820E0
7.760991100E0,6.315801144E0,-4.215284824E0,6.678392410E0,1.011231405E1
7.766016204E0,6.679369926E0,-4.745723248E0,6.358683586E0,1.037153454E1
7.771041309E0,6.826259136E0,-5.130815029E0,6.062646866E0,1.047276294E1
7.776130527E0,6.987004280E0,-5.465916634E0,5.632810593E0,1.050823623E1
7.781159694E0,6.667164803E0,-5.612977028E0,5.117682934E0,1.010679357E1
7.786188861E0,6.708935738E0,-5.730002403E0,4.713339806E0,1.000291549E1
7.791189017E0,6.249785900E0,-5.573639870E0,4.146578789E0,9.344485050E0
7.796216152E0,5.882785797E0,-5.517532349E0,3.684632778E0,8.867178281E0
7.801243288E0,5.581993103E0,-5.395016670E0,3.035301208E0,8.335340743E0
7.806235944E0,5.278509140E0,-5.240552902E0,2.370479822E0,7.806742474E0
7.811260684E0,5.177739620E0,-5.063992977E0,1.703157187E0,7.440010541E0
7.816285423E0,5.105935574E0,-4.875545025E0,9.518629909E-1,7.123732205E0
7.821310840E0,5.105125427E0,-4.704411983E0,2.834503055E-1,6.947959543E0
7.826335632E0,5.102857113E0,-4.488574505E0,-9.119570255E-2,6.796673337E0
7.831363236E0,5.213372707E0,-4.199419498E0,-4.910188913E-1,6.712337794E0
7.836388288E0,5.283317566E0,-3.966001987E0,-8.513604403E-1,6.660888144E0
7.841413340E0,5.465764523E0,-3.711585522E0,-1.155722857E0,6.707171104E0
7.846438392E0,5.540947437E0,-3.421583176E0,-1.187019587E0,6.619542690E0
7.851467350E0,5.581113815E0,-3.148443222E0,-1.159174562E0,6.511928425E0
7.856492611E0,5.658123016E0,-2.863452911E0,-1.118212104E0,6.439263697E0
7.861521309E0,5.767292500E0,-2.643173218E0,-1.038627744E0,6.428590438E0
7.866546934E0,5.823005676E0,-2.415664673E0,-9.907299280E-1,6.381565381E0
7.871572559E0,5.950039864E0,-2.262216568E0,-8.730181456E-1,6.425166057E0
7.876632194E0,6.153447151E0,-2.044028282E0,-6.851339340E-1,6.520151223E0
7.881660059E0,6.400270462E0,-1.722760201E0,-5.074704289E-1,6.647472522E0
7.886680371E0,6.681240559E0,-1.308047771E0,-3.788177371E-1,6.818611827E0
7.891707454E0,7.020629406E0,-7.138009071E-1,-6.152549982E-1,7.083592853E0
7.896734538E0,7.164954185E0,-1.677227020E-2,-1.131195545E0,7.253719953E0
7.901761621E0,7.195689201E0,1.065022469E0,-1.831205606E0,7.501035256E0
7.906753184E0,7.222536087E0,2.377757072E0,-2.712167501E0,8.073079263E0
7.911778496E0,7.598208427E0,3.131272316E0,-3.709387779E0,9.016495734E0
7.916803809E0,7.215024948E0,3.236501694E0,-5.390635490E0,9.570291490E0
7.921831413E0,5.737619400E0,3.265281677E0,-7.178891659E0,9.752888098E0
7.926856882E0,3.617658377E0,3.448078156E0,-8.954291344E0,1.025456135E1
7.931882350E0,7.733135223E-1,4.453853607E0,-1.099615002E1,1.188907654E1
7.936940475E0,-2.180583000E0,5.227988243E0,-1.225670719E1,1.350235811E1
7.941968184E0,-4.289216042E0,5.291481018E0,-1.187369537E1,1.368874674E1
7.946994277E0,-5.597255707E0,4.716499329E0,-1.074696064E1,1.300276126E1
7.952021777E0,-6.763989925E0,4.308000565E0,-7.922641277E0,1.127291770E1
7.957050007E0,-7.341992378E0,3.474144936E0,-3.038813114E0,8.672307666E0
7.962077611E0,-7.982650757E0,2.619441032E0,3.070814133E0,8.945059187E0
7.967101361E0,-8.566934586E0,1.722133636E0,9.430134773E0,1.285634296E1
7.972128548E0,-9.197566986E0,9.604835510E-1,1.211727810E1,1.524290640E1
7.977151569E0,-8.687366486E0,5.717658997E-2,1.153937817E1,1.444405947E1
7.982178340E0,-8.367134094E0,-9.305567741E-1,9.661201477E0,1.281458867E1
7.987202611E0,-6.840557098E0,-2.462115288E0,6.803803921E0,9.957257700E0
7.992229121E0,-5.486660480E0,-3.393927574E0,4.342901230E0,7.777080345E0
7.997255632E0,-4.953197002E0,-3.469374657E0,2.906223774E0,6.709460312E0
8.002282142E0,-4.745596886E0,-3.241066933E0,1.912701130E0,6.056701270E0
8.007271882E0,-4.465712547E0,-2.993273735E0,9.409637451E-1,5.457809907E0
8.012296569E0,-3.795176268E0,-2.855916023E0,2.332859635E-1,4.755422334E0
8.017321257E0,-2.951153517E0,-2.805570602E0,-5.555682182E-1,4.109645913E0
8.022350944E0,-2.038949490E0,-2.665142059E0,-1.052489996E0,3.516821350E0
8.027375944E0,-1.091700792E0,-2.520677567E0,-1.281451464E0,3.031129141E0
8.032401569E0,-1.808850765E-1,-1.984716415E0,-1.591541290E0,2.550455320E0
8.037426621E0,6.412260532E-1,-7.037472725E-1,-1.891633391E0,2.117712908E0
8.042451673E0,1.355937481E0,1.828290939E0,-1.793645620E0,2.897995656E0
8.047476725E0,7.880659103E-1,4.529253006E0,-1.874400496E0,4.964731402E0
8.052509277E0,-1.419611931E0,6.164550781E0,-2.087281704E0,6.661360918E0
8.057534694E0,-2.275016785E0,8.449979782E0,-2.087705135E0,8.996464440E0
8.062560111E0,-2.718808174E0,1.064708900E1,-1.395470500E0,1.107699237E1
8.067587090E0,-2.455562115E0,1.252612782E1,-8.628197312E-1,1.279367505E1
8.072612611E0,-1.672763348E0,1.367645168E1,-6.448110342E-1,1.379344950E1
8.077642038E0,1.419050694E-1,1.318683529E1,-9.808403254E-1,1.322402396E1
8.082667923E0,2.091303110E0,1.091827869E1,-1.562073231E0,1.122597128E1
8.087694069E0,1.745303154E0,8.124242783E0,-2.684540272E0,8.732477332E0
8.092720007E0,5.466599464E-1,5.557704926E0,-1.054784775E0,5.683264208E0
8.097745944E0,5.277776718E-2,3.121781349E0,6.920785904E-1,3.198011423E0
8.102771882E0,3.224151134E-1,7.051095963E-1,1.789260387E0,1.950021482E0
8.107796204E0,1.807194710E0,-1.080632687E0,1.521313190E0,2.597713138E0
8.112822038E0,3.983394861E0,-1.700893879E0,-5.945969224E-1,4.371958384E0
8.117846725E0,5.536578178E0,-1.692773342E0,-3.347712517E0,6.687776806E0
8.122872454E0,5.743681908E0,-1.200218678E0,-4.730416298E0,7.537058119E0
8.127896934E0,5.430315971E0,-2.724170685E-1,-4.866217613E0,7.296753831E0
8.132922507E0,5.090484619E0,5.483179092E-1,-4.251420021E0,6.654942403E0
8.137948079E0,5.007547855E0,1.079339981E0,-3.345296860E0,6.118130548E0
8.142973652E0,4.952301502E0,1.310879707E0,-2.155923367E0,5.558030347E0
8.148035736E0,4.909945965E0,1.372248650E0,-1.067898273E0,5.208746726E0
8.153063184E0,4.740583420E0,1.196353912E0,-6.901265383E-1,4.937678451E0
8.158090632E0,4.739455700E0,8.072137833E-1,-7.179269791E-1,4.861013636E0
8.163080684E0,5.177913666E0,3.056974411E-1,-6.466138363E-1,5.227078563E0
8.168105632E0,5.791643143E0,-1.307744980E-1,-2.828849554E-1,5.800022083E0
8.173130579E0,6.437153816E0,-3.389673233E-1,-6.965851784E-2,6.446448666E0
8.178155996E0,7.330280781E0,-4.522924423E-1,-8.789300919E-3,7.344226442E0
8.183180996E0,7.817022324E0,-5.033721924E-1,-1.971681118E-1,7.835693769E0
8.188205996E0,7.899661064E0,-6.061525345E-1,-4.534429312E-1,7.935847549E0
8.193230996E0,7.521498680E0,-6.310911179E-1,-4.679800272E-1,7.562421814E0
8.198262715E0,6.983254433E0,-4.828262329E-1,-4.338310957E-1,7.013356761E0
8.203288027E0,6.355507851E0,-3.149271011E-1,-2.328289747E-1,6.367563777E0
8.208313079E0,5.661299229E0,-1.995067596E-1,7.709717751E-2,5.665338108E0
8.213338392E0,5.071063042E0,-5.577945709E-2,3.321738243E-1,5.082236827E0
8.218363704E0,4.755379200E0,1.158800125E-1,9.850548506E-1,4.857714748E0
8.223389017E0,4.613000393E0,4.683570862E-1,2.264013767E0,5.159931136E0
8.228418652E0,4.385024071E0,7.621278763E-1,3.527174473E0,5.678929015E0
8.233444173E0,4.238234043E0,1.073570251E0,4.386554718E0,6.193306321E0
8.238469694E0,4.124150276E0,1.364265442E0,4.942520618E0,6.580147852E0
8.243495215E0,3.980666399E0,1.605587959E0,5.401227474E0,6.899048913E0
8.248509017E0,3.612071991E0,1.850321770E0,5.634047031E0,6.943575496E0
8.253533913E0,3.396151781E0,1.978815079E0,5.808917999E0,7.013778180E0
8.258575736E0,3.260891199E0,1.972289085E0,5.704761505E0,6.860585943E0
8.263602402E0,3.226012707E0,1.998634338E0,5.274205685E0,6.497610546E0
8.268629069E0,3.115636110E0,1.957549095E0,4.324242592E0,5.677874675E0
8.273686934E0,2.925919771E0,1.868333817E0,3.445885658E0,4.891401203E0
8.278715684E0,2.749731541E0,1.607176781E0,2.635880709E0,4.134236067E0
8.283744434E0,2.673599482E0,1.418340683E0,2.324699402E0,3.816287697E0
8.288767559E0,2.621286392E0,1.268486023E0,1.961061358E0,3.510834771E0
8.293795944E0,2.549729347E0,1.047738075E0,1.701634288E0,3.239511393E0
8.298824329E0,2.172019482E0,8.902311325E-1,1.588377476E0,2.834276469E0
8.303806673E0,1.899805188E0,6.142177582E-1,1.357615471E0,2.414465360E0
8.308831986E0,1.707082033E0,2.291297913E-1,9.311530590E-1,1.957977413E0
8.313862611E0,1.660787225E0,-3.982353210E-2,4.943217039E-1,1.733249568E0
8.318888444E0,1.655648589E0,-3.456840515E-1,2.526416779E-1,1.710116233E0
8.323914277E0,1.524510980E0,-5.879011154E-1,4.872643948E-2,1.634666851E0
8.328969850E0,1.363177776E0,-8.144025803E-1,-1.501864195E-1,1.595011340E0
8.333997663E0,1.048468113E0,-9.676790237E-1,-7.488310337E-2,1.428739149E0
8.339025371E0,3.748043776E-1,-1.105489731E0,8.963513374E-2,1.170734950E0
8.344053184E0,-1.548635960E-1,-1.151734352E0,1.692881584E-1,1.174365033E0
8.349077559E0,-6.982289553E-1,-1.087762833E0,1.761246920E-1,1.304519667E0
8.354105007E0,-1.125831962E0,-9.809627533E-1,2.554137707E-1,1.514932911E0
8.359132454E0,-1.403856158E0,-9.751091003E-1,2.937974930E-1,1.734349111E0
8.364151621E0,-1.483920932E0,-1.027100563E0,2.824269533E-1,1.826669615E0
